"Time (s)","Linear Acceleration x (m/s^2)","Linear Acceleration y (m/s^2)","Linear Acceleration z (m/s^2)"
7.370882400E-2,2.669963837E-1,-1.878757477E-1,2.512197495E-1
7.870882400E-2,2.537438869E-1,-2.128620148E-1,9.010076523E-2
8.370882400E-2,2.100120783E-1,-2.361912727E-1,-3.655576706E-2
8.870882400E-2,1.610383987E-1,-1.825499535E-1,-9.111690521E-2
9.370882400E-2,8.573353291E-2,-1.331839561E-1,-1.025886536E-1
9.870882400E-2,2.647876740E-2,-1.444740295E-1,-4.846239090E-2
1.037088240E-1,-1.160860062E-2,-1.741733551E-1,4.613494873E-2
1.087088240E-1,-5.667734146E-2,-1.657781601E-1,1.607360840E-1
1.137088240E-1,-9.990668297E-2,-1.241641045E-1,2.094044685E-1
1.187088240E-1,-1.018618345E-1,-1.302881241E-1,2.053956985E-1
1.237088240E-1,-6.474435329E-2,-1.731572151E-1,4.377379417E-1
1.287088240E-1,2.140033245E-2,-1.861634254E-1,9.402360916E-1
1.337088240E-1,1.273931265E-1,-1.678042412E-1,1.596514225E0
1.387088240E-1,2.299356461E-1,-1.919651031E-1,1.946261883E0
1.437088240E-1,3.071196675E-1,-2.621278763E-1,2.035944462E0
1.487088240E-1,3.278936148E-1,-3.189744949E-1,1.933154106E0
1.537088240E-1,3.072814345E-1,-3.647193909E-1,1.648742676E0
1.587088240E-1,2.463392615E-1,-4.014105797E-1,1.172197342E0
1.637088240E-1,2.518802881E-1,-4.188232422E-1,5.658535957E-1
1.687088240E-1,2.692793012E-1,-3.994469643E-1,1.794810295E-1
1.737088240E-1,2.656930089E-1,-3.806953430E-1,3.822894096E-1
1.787088240E-1,2.934756875E-1,-3.806986809E-1,4.895944595E-1
1.837088240E-1,3.289106488E-1,-3.331203461E-1,6.678991318E-1
1.887088240E-1,3.257167339E-1,-3.081216812E-1,8.006768227E-1
1.937088240E-1,2.639845610E-1,-2.712788582E-1,9.511828423E-1
1.987088240E-1,1.760857701E-1,-2.286920547E-1,1.092175484E0
2.037088240E-1,8.194190264E-2,-1.883234978E-1,1.196980476E0
2.087088240E-1,-3.244674206E-2,-1.631011963E-1,1.263049603E0
2.137088240E-1,-9.761780500E-2,-1.531844139E-1,1.320266724E0
2.187088240E-1,-1.156670451E-1,-1.540565491E-1,1.366067886E0
2.237088240E-1,-1.059694290E-1,-1.659126282E-1,1.372766495E0
2.287088240E-1,-6.730395555E-2,-1.848216057E-1,1.353782177E0
2.337088240E-1,-1.497894526E-2,-2.305569649E-1,1.324653149E0
2.387088240E-1,1.493889093E-2,-2.678174973E-1,1.306362152E0
2.437088240E-1,5.042964220E-2,-2.998576164E-1,1.325810909E0
2.487088240E-1,9.210729599E-2,-3.011684418E-1,1.338518143E0
2.537088240E-1,1.390379667E-1,-2.669310570E-1,1.384857178E0
2.587088240E-1,2.120293975E-1,-2.456116676E-1,1.400197029E0
2.637088240E-1,2.795454264E-1,-2.363657951E-1,1.364158630E0
2.687088240E-1,3.224459291E-1,-2.232408524E-1,1.270899773E0
2.737088240E-1,3.563361168E-1,-1.985235214E-1,1.109046936E0
2.787088240E-1,3.906299472E-1,-1.879725456E-1,8.913288116E-1
2.837088240E-1,4.415211082E-1,-1.617317200E-1,6.461963654E-1
2.887088240E-1,4.687414765E-1,-1.287145615E-1,3.848218918E-1
2.937088240E-1,4.346551597E-1,-8.762264252E-2,1.760911942E-1
2.987088240E-1,3.450488448E-1,-1.785612106E-2,5.620861053E-2
3.037088240E-1,2.661763132E-1,3.593444824E-3,-2.982139587E-2
3.087088240E-1,2.545613647E-1,-3.269672394E-2,-1.519317627E-1
3.137088240E-1,2.703975439E-1,-4.464483261E-2,-3.096628189E-1
3.187088240E-1,3.204701245E-1,-5.343723297E-2,-4.120411873E-1
3.237088240E-1,3.742926121E-1,-5.954551697E-2,-4.516930580E-1
3.287088240E-1,4.632065892E-1,-5.545473099E-2,-4.431786537E-1
3.337088240E-1,5.705794096E-1,-3.583097458E-2,-4.190487862E-1
3.387088240E-1,6.310214996E-1,-2.607870102E-2,-3.091111183E-1
3.437088240E-1,6.516885757E-1,-5.828809738E-2,-2.281432152E-1
3.487088240E-1,6.976242661E-1,-1.032624245E-1,-1.627607346E-1
3.537088240E-1,7.239569426E-1,-1.396374702E-1,-1.111254692E-1
3.587088240E-1,7.278703451E-1,-1.573452950E-1,-4.481697083E-2
3.637088240E-1,6.865215302E-1,-1.398439407E-1,7.583999634E-2
3.687088240E-1,6.713366508E-1,-1.908864975E-1,1.765413284E-1
3.737088240E-1,6.155426502E-1,-2.311291695E-1,2.457399368E-1
3.787088240E-1,5.078078508E-1,-2.440476418E-1,3.182964325E-1
3.837088240E-1,3.561869562E-1,-2.304911613E-1,3.829507828E-1
3.887088240E-1,2.142883688E-1,-2.179861069E-1,4.150180817E-1
3.937088240E-1,1.179520488E-1,-2.115244865E-1,4.177780151E-1
3.987088240E-1,6.083919108E-2,-1.980977058E-1,3.702907562E-1
4.037088240E-1,4.239137471E-2,-2.032375336E-1,2.706031799E-1
4.087088240E-1,3.657220304E-2,-1.539602280E-1,1.666641235E-1
4.137088240E-1,-1.597478986E-3,-7.025575638E-2,1.188526154E-1
4.187088240E-1,9.675562382E-3,-5.277299881E-2,5.235385895E-2
4.237088240E-1,5.190952122E-2,-4.621171951E-2,-5.029392242E-2
4.287088240E-1,1.446011662E-1,-5.117368698E-2,-1.936120987E-1
4.337088240E-1,1.891245544E-1,-3.367185593E-2,-3.313941956E-1
4.387088240E-1,2.349796891E-1,-9.739875793E-3,-4.401979446E-1
4.437088240E-1,2.112514973E-1,1.058673859E-2,-5.614776611E-1
4.487088240E-1,1.136710271E-1,5.139589310E-2,-6.322503090E-1
4.537088240E-1,8.882254362E-3,8.159208298E-2,-6.371288300E-1
4.587088240E-1,-7.402040064E-2,9.406280518E-2,-6.047401428E-1
4.637088240E-1,-1.257231236E-1,1.012701988E-1,-5.553741455E-1
4.687088240E-1,-1.730149984E-1,1.286392212E-1,-4.267392159E-1
4.737088240E-1,-1.672270596E-1,1.410412788E-1,-2.901248932E-1
4.787088240E-1,-1.003599763E-1,1.103305817E-1,-2.127218246E-1
4.837088240E-1,-1.534953713E-2,8.536624908E-2,-1.443881989E-1
4.887088240E-1,6.745561957E-2,5.266761780E-2,-1.382770538E-1
4.937088240E-1,1.053063422E-1,1.810073853E-2,-1.346759796E-1
4.987088240E-1,7.940360904E-2,2.638149261E-2,-1.126918793E-1
5.037088240E-1,2.991227806E-2,3.346014023E-2,-9.990835190E-2
5.087088240E-1,-4.725762457E-2,5.474281311E-2,-1.496524811E-1
5.137088240E-1,-1.141682342E-1,6.230878830E-2,-2.264351845E-1
5.187088240E-1,-1.998545527E-1,5.522489548E-2,-2.821788788E-1
5.237088240E-1,-2.950688601E-1,7.286548615E-2,-3.353385925E-1
5.287088240E-1,-3.192814589E-1,1.069827080E-1,-3.658905029E-1
5.337088240E-1,-2.810613811E-1,1.149096489E-1,-3.640537262E-1
5.387088240E-1,-1.881288737E-1,1.419963837E-1,-3.326706886E-1
5.437088240E-1,-7.438699156E-2,1.780447960E-1,-3.030452728E-1
5.487088240E-1,-8.174329996E-4,2.000889778E-1,-3.116941452E-1
5.537088240E-1,1.373977214E-2,2.028403282E-1,-3.803243637E-1
5.587088240E-1,-1.890194416E-2,1.612696648E-1,-4.884538651E-1
5.637088240E-1,-7.975628972E-2,1.181488037E-1,-6.058735847E-1
5.687088240E-1,-2.006324828E-1,1.673831940E-1,-6.306495667E-1
5.737088240E-1,-2.449834794E-1,1.871418953E-1,-5.553612709E-1
5.787088240E-1,-2.669012845E-1,1.503801346E-1,-4.736371040E-1
5.837088240E-1,-2.973844707E-1,1.272406578E-1,-3.888950348E-1
5.887088240E-1,-3.103644848E-1,9.855365753E-2,-2.914838791E-1
5.937088240E-1,-3.210521340E-1,8.078432083E-2,-1.767401695E-1
5.987088240E-1,-3.504885435E-1,1.341013908E-1,-3.222322464E-2
6.037088240E-1,-3.735316396E-1,1.484274864E-1,8.113479614E-2
6.087088240E-1,-4.161170721E-1,1.378140450E-1,2.153062820E-1
6.137088240E-1,-4.760425091E-1,1.277170181E-1,3.195362091E-1
6.187088240E-1,-5.326688290E-1,1.207070351E-1,3.880119324E-1
6.237088240E-1,-5.542706251E-1,9.943008423E-2,4.526386261E-1
6.287088240E-1,-5.224776864E-1,7.242584229E-2,4.618334770E-1
6.337088240E-1,-4.640239477E-1,5.052328110E-2,4.822139740E-1
6.387088240E-1,-4.241080880E-1,2.983522415E-2,4.667491913E-1
6.437088240E-1,-3.698301613E-1,-1.192235947E-2,4.413671494E-1
6.487088240E-1,-2.874415517E-1,-6.570386887E-2,3.972597122E-1
6.537088240E-1,-1.665326655E-1,-1.203680038E-1,3.100385666E-1
6.587088240E-1,-5.345495045E-2,-1.320290565E-1,2.111740112E-1
6.637088240E-1,1.215626299E-2,-1.196074486E-1,1.389503479E-1
6.687088240E-1,3.403186798E-2,-1.437153816E-1,8.295440674E-2
6.737088240E-1,7.489779592E-2,-1.707229614E-1,3.210067749E-2
6.787088240E-1,8.588181436E-2,-2.006626129E-1,-1.191711426E-2
6.837088240E-1,9.413659573E-2,-2.178840637E-1,-3.604030609E-2
6.887088240E-1,1.119952723E-1,-2.636113167E-1,-6.118965149E-2
6.937088240E-1,8.330996335E-2,-2.661356926E-1,-7.561969757E-2
6.987088240E-1,5.671611428E-2,-2.215580940E-1,-5.892562866E-2
7.037088240E-1,-4.065036774E-5,-2.005586624E-1,9.414672852E-3
7.087088240E-1,-2.209562063E-2,-1.665887833E-1,1.292381287E-1
7.137088240E-1,-3.142276406E-2,-1.271953583E-1,2.174072266E-1
7.187088240E-1,-2.493414283E-2,-9.826755524E-2,2.392826080E-1
7.237088240E-1,-3.110021353E-4,-7.677936554E-2,2.691612244E-1
7.287088240E-1,5.650067329E-2,-5.849838257E-2,2.615442276E-1
7.337088240E-1,1.242583990E-1,-5.250597000E-2,2.270021439E-1
7.387088240E-1,2.042625099E-1,-5.185604095E-2,1.543560028E-1
7.437088240E-1,2.708063424E-1,-6.112909317E-2,4.827785492E-2
7.487088240E-1,3.299469948E-1,-6.438112259E-2,-7.537460327E-2
7.537088240E-1,3.720224500E-1,-8.019399643E-2,-2.128305435E-1
7.587088240E-1,3.729104996E-1,-9.789133072E-2,-3.707923889E-1
7.637088240E-1,3.225660920E-1,-6.772327423E-2,-4.506525993E-1
7.687088240E-1,3.006016016E-1,-5.510282516E-2,-4.830045700E-1
7.737088240E-1,2.785856128E-1,-7.042503357E-2,-4.627656937E-1
7.787088240E-1,2.759168446E-1,-6.948995590E-2,-3.874087334E-1
7.837088240E-1,2.932485342E-1,-9.760665894E-2,-2.889213562E-1
7.887088240E-1,2.942263484E-1,-1.004385948E-1,-1.894989014E-1
7.937088240E-1,2.606406212E-1,-7.960510254E-2,-9.195518494E-2
7.987088240E-1,1.985587478E-1,-7.419824600E-2,4.134750366E-2
8.037088240E-1,1.466297507E-1,-6.850862503E-2,1.671495438E-1
8.087088240E-1,1.224409714E-1,-5.341053009E-2,2.948608398E-1
8.137088240E-1,1.015858203E-1,-3.292989731E-2,3.981142044E-1
8.187088240E-1,6.086780131E-2,9.113788605E-3,4.588680267E-1
8.237088240E-1,3.485791385E-2,2.127933502E-2,4.767503738E-1
8.287088240E-1,1.404304802E-2,2.997875214E-3,4.329242706E-1
8.337088240E-1,2.180226147E-2,-2.197504044E-2,3.634595871E-1
8.387088240E-1,2.424448729E-2,-2.804756165E-2,2.896213531E-1
8.437088240E-1,5.364462733E-3,-1.745414734E-2,2.201089859E-1
8.487088240E-1,-5.829063058E-2,1.723480225E-2,1.602334976E-1
8.537088240E-1,-1.358160973E-1,2.910757065E-2,1.010770798E-1
8.587088240E-1,-1.954068542E-1,2.610826492E-2,6.260871887E-2
8.637088240E-1,-2.116415203E-1,-1.697540283E-4,4.044342041E-2
8.687088240E-1,-2.082018852E-1,3.375053406E-3,6.178760529E-2
8.737088240E-1,-2.037555575E-1,2.945804596E-2,1.051950455E-1
8.787088240E-1,-1.875214875E-1,4.665470123E-2,1.677808762E-1
8.837088240E-1,-1.752817929E-1,2.231216431E-2,2.364711761E-1
8.887088240E-1,-1.796264052E-1,-1.436376572E-2,2.876720428E-1
8.937088240E-1,-1.956632435E-1,-1.047372818E-2,3.481245041E-1
8.987088240E-1,-2.089895308E-1,-1.752185822E-2,3.453598022E-1
9.037088240E-1,-2.005210817E-1,-2.982282639E-2,3.663206100E-1
9.087088240E-1,-1.515215039E-1,-4.355955124E-2,3.884077072E-1
9.137088240E-1,-7.549411058E-2,-4.618120193E-2,3.741464615E-1
9.187088240E-1,8.768647909E-3,-4.133415222E-2,3.479413986E-1
9.237088240E-1,8.780159056E-2,-3.893709183E-2,2.948102951E-1
9.287088240E-1,1.083499342E-1,-3.824853897E-2,1.611528397E-1
9.337088240E-1,1.064536870E-1,-3.183031082E-2,1.035022736E-2
9.387088240E-1,7.586696744E-2,-9.742736816E-3,-1.439094543E-1
9.437088240E-1,2.734601498E-2,1.451683044E-2,-2.813496590E-1
9.487088240E-1,-3.199824691E-2,5.741739273E-2,-3.904194832E-1
9.537088240E-1,-7.479122281E-2,7.081031799E-2,-4.705977440E-1
9.587088240E-1,-5.698624253E-2,6.972265244E-2,-5.157628059E-1
9.637088240E-1,-5.632954836E-2,9.512424469E-2,-5.000281334E-1
9.687088240E-1,-1.447209716E-2,1.214361191E-1,-4.506216049E-1
9.737088240E-1,4.340267181E-2,1.251173019E-1,-3.993492126E-1
9.787088240E-1,6.831383705E-2,1.158814430E-1,-3.698024750E-1
9.837088240E-1,4.157805443E-2,1.261234283E-1,-3.226914406E-1
9.887088240E-1,-6.415247917E-4,1.038227081E-1,-2.122297287E-1
9.937088240E-1,-2.088680863E-2,8.600378036E-2,-9.086322784E-2
9.987088240E-1,-2.665710449E-2,8.246803284E-2,1.987075806E-2
1.003708824E0,-1.117399335E-2,5.815315247E-2,1.060962677E-1
1.008708824E0,3.950595856E-2,2.130651474E-2,1.612949371E-1
1.013708824E0,1.105631739E-1,-3.971576691E-3,1.914901733E-1
1.018708824E0,1.889272928E-1,-4.187250137E-2,2.034740448E-1
1.023708824E0,2.404991388E-1,-7.242965698E-2,2.070522308E-1
1.028708824E0,2.716175616E-1,-9.594964981E-2,2.239122391E-1
1.033708824E0,2.918330431E-1,-1.227750778E-1,2.496347427E-1
1.038708824E0,3.132521808E-1,-1.663002968E-1,2.787828445E-1
1.043708824E0,3.154677451E-1,-1.955056190E-1,2.987442017E-1
1.048708824E0,3.122005761E-1,-2.061796188E-1,3.186950684E-1
1.053708824E0,2.876945436E-1,-2.144284248E-1,3.527011871E-1
1.058708824E0,3.055903316E-1,-2.153444290E-1,3.884506226E-1
1.063708824E0,3.299711049E-1,-2.107977867E-1,3.933706284E-1
1.068708824E0,3.304675817E-1,-2.287049294E-1,3.655414581E-1
1.073708824E0,2.814589441E-1,-2.531018257E-1,3.032827377E-1
1.078708824E0,1.992016435E-1,-2.537140846E-1,2.642793655E-1
1.083708824E0,1.120040566E-1,-2.199683189E-1,2.853450775E-1
1.088708824E0,2.344301343E-2,-1.675572395E-1,3.129377365E-1
1.093708824E0,-1.206955314E-2,-1.302862167E-1,3.455142975E-1
1.098708824E0,-2.937108278E-3,-8.624601364E-2,3.398637772E-1
1.103708824E0,4.659354687E-3,-3.963184357E-2,2.796697617E-1
1.108708824E0,2.465561032E-2,1.191997528E-2,1.999759674E-1
1.113708824E0,4.198032618E-2,4.855632782E-2,1.148109436E-1
1.118708824E0,6.022401154E-2,8.190727234E-2,2.995872498E-2
1.123708824E0,4.748167098E-2,1.282467842E-1,-3.529548645E-3
1.128708824E0,4.762010276E-2,1.790413857E-1,-2.929496765E-2
1.133708824E0,7.246859372E-2,1.903905869E-1,-6.604766846E-2
1.138708824E0,1.042716354E-1,1.547865868E-1,-1.054334641E-1
1.143708824E0,1.331759691E-1,1.351704597E-1,-1.219844818E-1
1.148708824E0,1.388381273E-1,1.173572540E-1,-7.994747162E-2
1.153708824E0,1.164715737E-1,1.196870804E-1,1.048755646E-2
1.158708824E0,5.463296175E-2,1.303858757E-1,1.198749542E-1
1.163708824E0,-1.895949244E-2,1.242904663E-1,1.836795807E-1
1.168708824E0,-9.223178029E-2,1.248826981E-1,2.226476669E-1
1.173708824E0,-1.730184555E-1,1.642622948E-1,2.627964020E-1
1.178708824E0,-2.325873673E-1,2.089333534E-1,2.926874161E-1
1.183708824E0,-2.608913183E-1,2.318291664E-1,2.911405563E-1
1.188708824E0,-2.707038820E-1,2.586507797E-1,2.206602097E-1
1.193708824E0,-2.719425261E-1,2.614164352E-1,1.093521118E-1
1.198708824E0,-2.713991106E-1,2.475218773E-1,-1.945209503E-2
1.203708824E0,-2.941106856E-1,2.426724434E-1,-1.355433464E-1
1.208708824E0,-3.119874895E-1,2.352881432E-1,-2.187066078E-1
1.213708824E0,-3.519978821E-1,2.260737419E-1,-2.856354713E-1
1.218708824E0,-4.595775306E-1,2.620825768E-1,-3.023557663E-1
1.223708824E0,-5.068827868E-1,2.485847473E-1,-3.045444489E-1
1.228708824E0,-4.893755019E-1,2.012600899E-1,-3.004570007E-1
1.233708824E0,-4.723394811E-1,2.035689354E-1,-2.816238403E-1
1.238708824E0,-4.364412725E-1,1.886858940E-1,-2.333869934E-1
1.243708824E0,-4.052421749E-1,1.577239037E-1,-1.672043800E-1
1.248708824E0,-3.533029258E-1,1.160120964E-1,-1.180801392E-1
1.253708824E0,-3.229242563E-1,6.895256042E-2,-1.207242012E-1
1.258708824E0,-2.775177360E-1,3.338289261E-2,-1.496400833E-1
1.263708824E0,-2.357353568E-1,1.380825043E-2,-1.559534073E-1
1.268708824E0,-1.925737858E-1,-8.509635925E-3,-1.589498520E-1
1.273708824E0,-1.471035779E-1,-3.668165207E-2,-1.820416451E-1
1.278708824E0,-9.631288052E-2,-6.621551514E-2,-2.073783875E-1
1.283708824E0,-4.123100638E-2,-1.020555496E-1,-2.610530853E-1
1.288708824E0,-1.317432523E-2,-1.441612244E-1,-2.886137962E-1
1.293708824E0,-2.717831731E-2,-1.519889832E-1,-3.021268845E-1
1.298708824E0,-2.941566706E-2,-1.471524239E-1,-3.207607269E-1
1.303708824E0,-1.620763540E-2,-1.536116600E-1,-3.429212570E-1
1.308708824E0,3.971844912E-3,-1.536660194E-1,-3.567333221E-1
1.313708824E0,5.976408720E-3,-1.518583298E-1,-4.109954834E-1
1.318708824E0,-9.623676538E-3,-1.046395302E-1,-3.998227119E-1
1.323708824E0,1.540884376E-2,-7.601499557E-2,-3.750348091E-1
1.328708824E0,7.362687588E-2,-7.044076920E-2,-3.621640205E-1
1.333708824E0,1.593137532E-1,-8.316993713E-2,-3.784608841E-1
1.338708824E0,2.327159345E-1,-8.241319656E-2,-3.700799942E-1
1.343708824E0,2.700949609E-1,-4.714727402E-2,-3.025031090E-1
1.348708824E0,2.698795795E-1,-4.375600815E-2,-2.561011314E-1
1.353708824E0,2.590585351E-1,-5.521249771E-2,-1.984710693E-1
1.358708824E0,2.205716074E-1,-5.982017517E-2,-1.118350029E-1
1.363708824E0,1.676497310E-1,-5.238342285E-2,-1.547098160E-2
1.368708824E0,9.464004636E-2,-3.983259201E-2,9.803390503E-2
1.373708824E0,-1.490801573E-3,-3.353977203E-2,2.188940048E-1
1.378708824E0,-7.011085749E-2,-4.790067673E-2,3.015213013E-1
1.383708824E0,-1.693579257E-1,-3.498268127E-2,3.850879669E-1
1.388708824E0,-2.765956223E-1,1.094245911E-2,4.792556763E-1
1.393708824E0,-3.389860392E-1,1.782989502E-2,5.654811859E-1
1.398708824E0,-3.701126575E-1,1.435756683E-2,5.985889435E-1
1.403708824E0,-3.809510469E-1,2.142047882E-2,5.960254669E-1
1.408708824E0,-3.487839103E-1,5.753040314E-3,5.854072571E-1
1.413708824E0,-2.758060396E-1,1.745223999E-2,5.928268433E-1
1.418708824E0,-2.208951116E-1,4.241991043E-2,5.569648743E-1
1.423708824E0,-1.804414690E-1,1.220226288E-2,4.721488953E-1
1.428708824E0,-1.807010770E-1,-1.528310776E-2,3.574037552E-1
1.433708824E0,-1.846193969E-1,-7.314682007E-3,2.647628784E-1
1.438708824E0,-1.412695050E-1,-9.687423706E-3,2.121191025E-1
1.443708824E0,-1.122653782E-1,-1.034736633E-3,1.083726883E-1
1.448708824E0,-1.722798944E-1,1.893148422E-1,-3.182041168E0
1.453708824E0,-5.917621255E-1,7.202830315E-1,-4.228617191E0
1.458708824E0,-3.470852077E-1,6.058387756E-1,-3.081545830E0
1.463708824E0,-3.368407488E-3,4.994578362E-1,-2.449024677E0
1.468708824E0,5.242359638E-1,2.835097313E-1,-1.435242176E0
1.473708824E0,4.667930603E-1,1.158556938E-1,-4.707407951E-1
1.478708824E0,1.840256155E-1,8.012771606E-3,6.348810196E-1
1.483708824E0,-1.854102015E-1,-1.683783531E-1,1.545447350E0
1.488708824E0,-3.699964881E-1,-3.251338005E-1,1.777438164E0
1.493708824E0,-4.668740034E-1,-3.767576218E-1,1.636584282E0
1.498708824E0,-5.594739318E-1,-3.293380737E-1,1.427582741E0
1.503708824E0,-6.340695024E-1,-2.588624954E-1,1.239023209E0
1.508708824E0,-6.585129499E-1,-2.056078911E-1,1.084666252E0
1.513708824E0,-6.084403396E-1,-1.507430077E-1,9.902076721E-1
1.518708824E0,-5.031518340E-1,-1.047239304E-1,8.809404373E-1
1.523708824E0,-3.399218917E-1,-8.373880386E-2,7.615308762E-1
1.528708824E0,-1.715695262E-1,-7.641363144E-2,6.455860138E-1
1.533708824E0,-2.013224363E-2,-6.970167160E-2,5.399999619E-1
1.538708824E0,1.035270393E-1,-1.028900146E-1,4.258813858E-1
1.543708824E0,1.399874985E-1,-8.642482758E-2,3.321104050E-1
1.548708824E0,1.328882277E-1,-6.499481201E-2,3.019905090E-1
1.553708824E0,1.112006903E-1,-3.370189667E-2,2.825717926E-1
1.558708824E0,8.048385382E-2,-3.097391129E-2,2.750453949E-1
1.563708824E0,5.547371507E-2,-2.499151230E-2,2.624263763E-1
1.568708824E0,2.298334241E-2,-2.155494690E-2,2.460746765E-1
1.573708824E0,3.913354874E-2,-2.896261215E-2,2.071323395E-1
1.578708824E0,8.096754551E-2,-1.102638245E-2,1.745481491E-1
1.583708824E0,1.161216199E-1,1.747131348E-3,1.233787537E-1
1.588708824E0,1.465749145E-1,-2.111434937E-3,3.737354279E-2
1.593708824E0,1.326546967E-1,1.224470139E-2,-4.893016815E-2
1.598708824E0,1.113070548E-1,3.861665726E-2,-1.191329956E-1
1.603708824E0,1.189220846E-1,4.363918304E-2,-1.694965363E-1
1.608708824E0,1.573493779E-1,3.933572769E-2,-2.233438492E-1
1.613708824E0,1.953522563E-1,3.522300720E-2,-3.025598526E-1
1.618708824E0,2.309127748E-1,4.487562180E-2,-3.931279182E-1
1.623708824E0,2.514346242E-1,5.370330811E-2,-4.517655373E-1
1.628708824E0,2.289531678E-1,6.555652618E-2,-4.540028572E-1
1.633708824E0,1.890166700E-1,7.198429108E-2,-4.277281761E-1
1.638708824E0,1.550864577E-1,4.822969437E-2,-3.991599083E-1
1.643708824E0,1.539518237E-1,1.627397537E-2,-3.674473763E-1
1.648708824E0,1.042363942E-1,4.289150238E-3,-3.342595100E-1
1.653708824E0,2.932190895E-2,1.879405975E-2,-2.742285728E-1
1.658708824E0,-1.982301474E-2,-6.928443909E-3,-1.963338852E-1
1.663708824E0,-4.628086090E-2,-3.052139282E-2,-9.669542313E-2
1.668708824E0,-2.401772141E-2,-4.869604111E-2,1.040935516E-2
1.673708824E0,3.422290087E-3,-4.505395889E-2,1.151704788E-1
1.678708824E0,3.093764186E-2,-8.055162430E-2,1.946277618E-1
1.683708824E0,6.332367659E-3,-8.542823792E-2,2.674541473E-1
1.688708824E0,-3.190276027E-2,-7.407426834E-2,2.843322754E-1
1.693708824E0,-7.336020470E-2,-7.155752182E-2,2.942419052E-1
1.698708824E0,-8.863347769E-2,-6.115627289E-2,2.834644318E-1
1.703708824E0,-6.622308493E-2,-5.401086807E-2,2.686519623E-1
1.708708824E0,-4.872798920E-3,-6.751155853E-2,2.002286911E-1
1.713708824E0,2.544119954E-2,-6.867980957E-2,1.141252518E-1
1.718708824E0,6.909602880E-2,-5.963087082E-2,6.802272797E-2
1.723708824E0,1.099598110E-1,-4.423666000E-2,4.984664917E-2
1.728708824E0,1.591676772E-1,-4.157066345E-2,7.537841797E-2
1.733708824E0,2.035478354E-1,-4.566097260E-2,9.003829956E-2
1.738708824E0,2.285560966E-1,-2.922677994E-2,1.147813797E-1
1.743708824E0,2.163791955E-1,-1.697015762E-2,1.314697266E-1
1.748708824E0,1.741623580E-1,-6.771087646E-3,1.524553299E-1
1.753708824E0,1.592090726E-1,-8.347034454E-3,1.897239685E-1
1.758708824E0,1.501995623E-1,-8.183956146E-3,2.300605774E-1
1.763708824E0,1.662087739E-1,-2.293729782E-2,2.454690933E-1
1.768708824E0,1.790622175E-1,-4.847431183E-2,2.313890457E-1
1.773708824E0,1.509899199E-1,-3.702259064E-2,2.242527008E-1
1.778708824E0,1.148180962E-1,-2.722358704E-2,2.189140320E-1
1.783708824E0,8.209234476E-2,-2.139902115E-2,2.408971786E-1
1.788708824E0,4.277062416E-2,-6.493568420E-3,2.448549271E-1
1.793708824E0,2.488076687E-2,-7.380962372E-3,2.259759903E-1
1.798708824E0,3.680950403E-2,-1.861524582E-2,1.953125000E-1
1.803708824E0,1.969906688E-2,-1.518011093E-2,1.730394363E-1
1.808708824E0,-6.139814854E-3,-1.991128922E-2,1.563434601E-1
1.813708824E0,-1.530104876E-2,-2.045536041E-2,1.397657394E-1
1.818708824E0,-4.687547684E-3,-2.120828629E-2,1.152563095E-1
1.823708824E0,1.512634754E-2,-2.896213531E-2,9.285259247E-2
1.828708824E0,2.452707291E-2,-3.265666962E-2,6.429767609E-2
1.833708824E0,1.065087318E-2,-3.769254684E-2,4.669284821E-2
1.838708824E0,8.652687073E-3,-1.717948914E-2,3.798103333E-2
1.843708824E0,2.175119519E-2,-2.749156952E-2,4.174137115E-2
1.848708824E0,3.849706054E-2,-2.683544159E-2,4.388141632E-2
1.853708824E0,8.925750852E-2,-3.523635864E-2,3.339767456E-2
1.858708824E0,1.427804530E-1,-5.813694000E-2,7.642745972E-3
1.863708824E0,1.319600940E-1,-5.818986893E-2,-4.303836823E-2
1.868708824E0,1.160228550E-1,-4.569292068E-2,-5.958461761E-2
1.873708824E0,1.203379929E-1,-5.628490448E-2,-6.220817566E-2
1.878708824E0,1.306315064E-1,-4.338216782E-2,-4.454040527E-2
1.883708824E0,1.679178476E-1,-2.959680557E-2,-1.395893097E-2
1.888708824E0,2.082625329E-1,-1.866722107E-2,-9.053230286E-3
1.893708824E0,2.321223766E-1,-2.040195465E-2,-3.529930115E-2
1.898708824E0,2.334723473E-1,-3.561878204E-2,-6.936550140E-2
1.903708824E0,2.185116708E-1,-4.727506638E-2,-1.411013603E-1
1.908708824E0,1.709081233E-1,-5.991125107E-2,-1.689872742E-1
1.913708824E0,4.906782508E-2,-4.796648026E-2,-1.556997299E-1
1.918708824E0,-1.223038733E-1,-1.057243347E-2,-8.394336700E-2
1.923708824E0,-2.516350150E-1,-5.088806152E-3,-1.074600220E-2
1.928708824E0,-3.127713203E-1,-1.036643982E-2,4.833698273E-2
1.933708824E0,-3.388682604E-1,2.004146576E-3,1.200056076E-1
1.938708824E0,-3.313569725E-1,2.336740494E-2,1.847229004E-1
1.943708824E0,-2.847445607E-1,3.215074539E-2,1.918306351E-1
1.948708824E0,-2.197635770E-1,3.204059601E-2,1.889572144E-1
1.953708824E0,-1.711033583E-1,2.684164047E-2,1.608819962E-1
1.958708824E0,-1.512754560E-1,1.971864700E-2,1.060047150E-1
1.963708824E0,-1.306776404E-1,-5.578994751E-5,5.573940277E-2
1.968708824E0,-1.500250101E-1,1.692771912E-3,5.394268036E-2
1.973708824E0,-2.207718492E-1,3.538084030E-2,8.317184448E-2
1.978708824E0,-2.907788157E-1,4.289388657E-2,1.410293579E-1
1.983708824E0,-3.037554622E-1,3.106784821E-2,1.775474548E-1
1.988708824E0,-3.002598286E-1,1.496648788E-2,1.877183914E-1
1.993708824E0,-2.658373117E-1,1.059150696E-2,1.935510635E-1
1.998708824E0,-2.234008312E-1,-7.247924805E-4,1.817235947E-1
2.003708824E0,-1.675453782E-1,-1.474380493E-3,2.052860260E-1
2.008708824E0,-8.412981033E-2,3.700256348E-3,2.082262039E-1
2.013708824E0,1.465862989E-2,6.645202637E-3,1.648044586E-1
2.018708824E0,1.001320183E-1,-1.324462891E-2,6.784725189E-2
2.023708824E0,1.127325892E-1,2.925395966E-3,-4.499721527E-2
2.028708824E0,7.331317663E-2,6.166219711E-2,-1.436638832E-1
2.033708824E0,5.947062373E-2,5.671024323E-2,-2.243466377E-1
2.038708824E0,5.956473947E-2,1.951599121E-2,-2.805409431E-1
2.043708824E0,6.258311868E-2,3.064823151E-2,-3.257203102E-1
2.048708824E0,7.281088829E-2,3.970956802E-2,-3.427400589E-1
2.053708824E0,4.871770740E-2,2.617645264E-2,-3.194780350E-1
2.058708824E0,-5.380368233E-2,4.306745529E-2,-1.438112259E-1
2.063708824E0,-1.278657615E-1,1.664972305E-2,-6.639480591E-3
2.068708824E0,-1.181499362E-1,-3.078413010E-2,8.886623383E-2
2.073708824E0,-8.443042636E-2,-7.225799561E-2,1.256875992E-1
2.078708824E0,-5.251982808E-2,-9.945201874E-2,1.414976120E-1
2.083708824E0,-3.014081717E-2,-1.155796051E-1,1.573238373E-1
2.088708824E0,-1.109749079E-2,-1.360211372E-1,1.898107529E-1
2.093708824E0,7.881015539E-3,-1.244807243E-1,2.269744873E-1
2.098708824E0,8.336204290E-2,-1.298942566E-1,2.462873459E-1
2.103708824E0,1.272135675E-1,-1.019916534E-1,2.387399673E-1
2.108708824E0,1.630613506E-1,-6.620025635E-2,1.866245270E-1
2.113708824E0,1.670693159E-1,-3.092813492E-2,1.043405533E-1
2.118708824E0,1.491658986E-1,-1.981639862E-2,-1.027297974E-2
2.123708824E0,1.454933584E-1,-1.236295700E-2,-1.381630898E-1
2.128708824E0,1.294719577E-1,8.155822754E-3,-2.541055679E-1
2.133708824E0,1.130693853E-1,4.227447510E-2,-3.281970024E-1
2.138708824E0,1.109265685E-1,7.956600189E-2,-3.433203697E-1
2.143708824E0,1.127274930E-1,8.517742157E-2,-3.355450630E-1
2.148708824E0,1.078056395E-1,1.003022194E-1,-3.048129082E-1
2.153708824E0,1.139593422E-1,1.175227165E-1,-2.748031616E-1
2.158708824E0,1.391516924E-1,9.067201614E-2,-2.319850922E-1
2.163708824E0,1.381296813E-1,5.720090866E-2,-1.880955696E-1
2.168708824E0,1.629384756E-1,7.271289825E-3,-1.496205330E-1
2.173708824E0,1.878412962E-1,-3.567886353E-2,-9.741115570E-2
2.178708824E0,1.906515956E-1,-5.014610291E-2,-2.974510193E-2
2.183708824E0,2.180801034E-1,-7.264328003E-2,1.543045044E-2
2.188708824E0,2.151817977E-1,-9.279155731E-2,5.252742767E-2
2.193708824E0,1.448864639E-1,-7.706546783E-2,1.118707657E-1
2.198708824E0,7.602593303E-2,-4.332017899E-2,1.385688782E-1
2.203708824E0,2.964925766E-2,-2.957010269E-2,1.545972824E-1
2.208708824E0,-2.825275064E-2,-1.673412323E-2,1.743106842E-1
2.213708824E0,-8.042901754E-2,-1.544141769E-2,1.666078568E-1
2.218708824E0,-1.259171069E-1,2.293109894E-3,1.345272064E-1
2.223708824E0,-1.758916676E-1,4.420137405E-2,1.156282425E-1
2.228708824E0,-2.200249732E-1,6.598329544E-2,1.251201630E-1
2.233708824E0,-2.336279750E-1,5.708122253E-2,1.458425522E-1
2.238708824E0,-2.492336929E-1,6.137561798E-2,1.817102432E-1
2.243708824E0,-2.346025109E-1,7.477188110E-2,2.079544067E-1
2.248708824E0,-1.916196346E-1,5.873966217E-2,1.932001114E-1
2.253708824E0,-1.011640429E-1,2.640295029E-2,1.677436829E-1
2.258708824E0,-9.750455618E-3,3.197669983E-3,1.333818436E-1
2.263708824E0,9.404361248E-3,2.100419998E-2,9.904098511E-2
2.268708824E0,1.054343581E-2,1.398038864E-2,7.793807983E-2
2.273708824E0,3.717604280E-2,-1.124238968E-2,5.272960663E-2
2.278708824E0,8.970972896E-2,-2.664566040E-2,1.673793793E-2
2.283708824E0,1.502723992E-1,-2.109670639E-2,-6.227493286E-3
2.288708824E0,1.968276501E-1,-1.512861252E-2,-2.765464783E-2
2.293708824E0,2.277286053E-1,-1.058292389E-2,-4.768943787E-2
2.298708824E0,2.729072273E-1,-1.875638962E-2,-4.381084442E-2
2.303708824E0,3.225675225E-1,-4.847717285E-2,-9.195613861E-2
2.308708824E0,3.135679364E-1,-6.860637665E-2,-1.617379189E-1
2.313708824E0,2.095974982E-1,-2.143096924E-2,-1.730232239E-1
2.318708824E0,8.668667078E-2,1.889801025E-2,-1.202511787E-1
2.323708824E0,1.765090227E-2,-2.905368805E-3,-5.848693848E-2
2.328708824E0,-7.286220789E-3,3.805160522E-4,7.753372192E-3
2.333708824E0,-2.431035042E-3,1.581287384E-2,5.477046967E-2
2.338708824E0,3.287360072E-2,4.052305222E-2,7.909584045E-2
2.343708824E0,7.731759548E-2,4.690265656E-2,4.955291748E-2
2.348708824E0,9.157279134E-2,4.523468018E-2,-8.422851562E-3
2.353708824E0,6.670141220E-2,3.622817993E-2,-7.883644104E-2
2.358708824E0,1.284438372E-2,5.768442154E-2,-1.545963287E-1
2.363708824E0,-1.592025161E-2,6.047821045E-2,-1.932973862E-1
2.368708824E0,-8.566051722E-3,2.924633026E-2,-2.017626762E-1
2.373708824E0,-1.660618186E-2,7.986545563E-3,-1.515607834E-1
2.378708824E0,-5.254492164E-2,1.335239410E-2,-6.411647797E-2
2.383708824E0,-1.180713773E-1,-5.469322205E-4,4.146385193E-2
2.388708824E0,-1.626547575E-1,4.879474640E-3,1.409349442E-1
2.393708824E0,-1.763149202E-1,8.578300476E-4,2.012996674E-1
2.398708824E0,-1.763742864E-1,-9.713649750E-3,2.241506577E-1
2.403708824E0,-1.761381030E-1,-9.383201599E-3,2.304964066E-1
2.408708824E0,-1.763002872E-1,9.275436401E-3,2.341928482E-1
2.413708824E0,-1.566442847E-1,1.294040680E-2,2.463417053E-1
2.418708824E0,-1.323588490E-1,1.819562912E-2,2.257299423E-1
2.423708824E0,-1.144004762E-1,4.693222046E-2,1.792058945E-1
2.428708824E0,-9.051734209E-2,7.481288910E-2,1.526298523E-1
2.433708824E0,-6.058931351E-2,8.401727676E-2,9.731864929E-2
2.438708824E0,-2.895811200E-2,8.389472961E-2,1.127719879E-2
2.443708824E0,1.953926682E-2,6.805372238E-2,-8.412933350E-2
2.448708824E0,5.604758859E-2,4.180669785E-2,-2.094869614E-1
2.453708824E0,3.046464920E-2,3.400659561E-2,-2.905683517E-1
2.458708824E0,-6.042113900E-2,6.326055527E-2,-2.814245224E-1
2.463708824E0,-1.690107286E-1,7.679080963E-2,-1.764292717E-1
2.468708824E0,-2.316054702E-1,5.252218246E-2,-6.059646606E-2
2.473708824E0,-2.554344535E-1,3.217649460E-2,7.062911987E-3
2.478708824E0,-2.508173287E-1,2.398252487E-2,4.795455933E-2
2.483708824E0,-2.248639464E-1,1.781797409E-2,7.701778412E-2
2.488708824E0,-1.821738780E-1,2.098083496E-5,1.242799759E-1
2.493708824E0,-1.288151741E-1,-1.749801636E-2,1.620759964E-1
2.498708824E0,-3.174653649E-2,-1.883554459E-2,1.878328323E-1
2.503708824E0,7.801094651E-2,-1.746177673E-3,1.699838638E-1
2.508708824E0,1.740999818E-1,1.328563690E-2,1.115741730E-1
2.513708824E0,2.606970966E-1,1.433515549E-2,3.600597382E-2
2.518708824E0,3.063822389E-1,-8.819103241E-3,-5.165004730E-2
2.523708824E0,3.284012377E-1,-4.086971283E-3,-1.405405998E-1
2.528708824E0,3.191539049E-1,-2.393484116E-2,-2.292470932E-1
2.533708824E0,2.824809253E-1,-3.905677795E-2,-3.051733971E-1
2.538708824E0,2.366431952E-1,-3.544616699E-2,-3.373346329E-1
2.543708824E0,1.890395135E-1,-3.551578522E-2,-3.347940445E-1
2.548708824E0,1.431322396E-1,-3.237438202E-2,-2.986383438E-1
2.553708824E0,1.102643609E-1,-1.859378815E-2,-2.418651581E-1
2.558708824E0,8.900901675E-2,-1.734304428E-2,-1.879620552E-1
2.563708824E0,8.481523395E-2,-3.507137299E-2,-1.473813057E-1
2.568708824E0,5.306068063E-2,-3.394031525E-2,-7.308197021E-2
2.573708824E0,-3.112229705E-2,-3.205776215E-3,1.250553131E-2
2.578708824E0,-9.077385068E-2,1.886844635E-3,7.923507690E-2
2.583708824E0,-1.196292937E-1,-1.563978195E-2,1.128435135E-1
2.588708824E0,-1.321396530E-1,-2.874946594E-2,1.647462845E-1
2.593708824E0,-1.350556314E-1,-2.523088455E-2,1.995582581E-1
2.598708824E0,-1.200112104E-1,-1.663160324E-2,2.397327423E-1
2.603708824E0,-1.009638906E-1,-6.542205811E-3,2.680644989E-1
2.608708824E0,-7.213646173E-2,8.811950684E-4,2.612838745E-1
2.613708824E0,-3.955528140E-2,-2.141666412E-2,2.265949249E-1
2.618708824E0,8.043467999E-3,-3.478384018E-2,1.645431519E-1
2.623708824E0,1.773086190E-2,-3.410482407E-2,1.092748642E-1
2.628708824E0,-1.709160209E-2,-2.192115784E-2,6.304359436E-2
2.633708824E0,-5.479380488E-2,-9.714126587E-3,2.644062042E-2
2.638708824E0,-8.430814743E-2,6.381511688E-3,7.820129395E-5
2.643708824E0,-8.611023426E-2,1.515865326E-2,-1.836013794E-2
2.648708824E0,-8.399230242E-2,4.491949081E-2,-6.737709045E-3
2.653708824E0,-6.438425183E-2,4.363775253E-2,2.900600433E-2
2.658708824E0,-5.690598488E-2,4.091358185E-2,6.618213654E-2
2.663708824E0,-5.070537329E-2,3.448152542E-2,1.107616425E-1
2.668708824E0,-2.540507913E-2,3.817319870E-2,1.592683792E-1
2.673708824E0,3.254824877E-2,2.685737610E-2,2.074508667E-1
2.678708824E0,6.863704324E-2,1.155424118E-2,2.373027802E-1
2.683708824E0,1.355386972E-1,2.224922180E-3,2.018289566E-1
2.688708824E0,1.919127107E-1,-4.368782043E-3,1.700639725E-1
2.693708824E0,2.376542687E-1,-2.445030212E-2,1.345357895E-1
2.698708824E0,2.609216273E-1,-3.835439682E-2,7.763195038E-2
2.703708824E0,2.500110269E-1,-4.169845581E-2,2.410125732E-2
2.708708824E0,2.098072022E-1,-4.198217392E-2,-2.574539185E-2
2.713708824E0,1.692276597E-1,-6.183290482E-2,-5.460071564E-2
2.718708824E0,1.121819317E-1,-7.079458237E-2,-8.618736267E-2
2.723708824E0,8.886545897E-2,-6.241178513E-2,-1.053972244E-1
2.728708824E0,7.585495710E-2,-5.254364014E-2,-1.024885178E-1
2.733708824E0,6.945726275E-2,-3.773784637E-2,-8.109378815E-2
2.738708824E0,4.335197806E-2,-2.479076385E-2,-4.559326172E-2
2.743708824E0,1.700469851E-2,-4.505252838E-2,-1.227092743E-2
2.748708824E0,-5.954554677E-2,-3.091621399E-2,3.514575958E-2
2.753708824E0,-8.626437187E-2,-1.718950272E-2,8.082008362E-2
2.758708824E0,-9.704071283E-2,-1.276636124E-2,1.290454865E-1
2.763708824E0,-1.180334985E-1,-1.167058945E-2,1.459445953E-1
2.768708824E0,-1.060366929E-1,-1.537799835E-2,1.589775085E-1
2.773708824E0,-8.365970850E-2,-1.925182343E-2,1.603231430E-1
2.778708824E0,-4.491347075E-2,-3.259897232E-2,1.453514099E-1
2.783708824E0,5.645215511E-3,-3.512430191E-2,1.544418335E-1
2.788708824E0,4.705202579E-2,-4.353618622E-2,1.486949921E-1
2.793708824E0,7.444509864E-2,-5.296802521E-2,1.493024826E-1
2.798708824E0,7.446756959E-2,-4.613256454E-2,1.112470627E-1
2.803708824E0,7.544767857E-2,-6.874418259E-2,4.522991180E-2
2.808708824E0,2.482011914E-2,-6.964111328E-2,1.845550537E-2
2.813708824E0,-4.620781541E-2,-4.338836670E-2,1.763820648E-2
2.818708824E0,-8.518239856E-2,-3.435707092E-2,5.411911011E-2
2.823708824E0,-1.179686189E-1,-3.088951111E-2,1.063442230E-1
2.828708824E0,-1.532191634E-1,-2.156734467E-2,1.366462708E-1
2.833708824E0,-1.881781220E-1,-1.423072815E-2,1.268386841E-1
2.838708824E0,-2.094771564E-1,3.476142883E-4,1.131849289E-1
2.843708824E0,-2.321539521E-1,2.130079269E-2,7.922649384E-2
2.848708824E0,-2.345045209E-1,3.097391129E-2,4.511451721E-2
2.853708824E0,-2.167870998E-1,3.155326843E-2,4.888725281E-2
2.858708824E0,-2.000846863E-1,5.008077621E-2,6.233692169E-2
2.863708824E0,-1.773610413E-1,6.199264526E-2,7.507133484E-2
2.868708824E0,-1.387414336E-1,8.409404755E-2,5.227279663E-2
2.873708824E0,-7.702481747E-2,7.518720627E-2,3.767967224E-3
2.878708824E0,-1.021963358E-2,6.758308411E-2,-7.941055298E-2
2.883708824E0,2.728626132E-2,6.329917908E-2,-1.726369858E-1
2.888708824E0,9.320139885E-3,6.932163239E-2,-2.595567703E-1
2.893708824E0,-4.908084869E-3,8.197307587E-2,-3.150043488E-1
2.898708824E0,8.790612221E-3,9.352254868E-2,-3.291935921E-1
2.903708824E0,-2.331137657E-3,1.038408279E-1,-3.503308296E-1
2.908708824E0,-1.412993670E-2,9.756088257E-2,-3.228034973E-1
2.913708824E0,-3.111287951E-2,8.528947830E-2,-3.040428162E-1
2.918708824E0,-7.149982452E-2,1.002631187E-1,-2.783832550E-1
2.923708824E0,-1.373828351E-1,1.096820831E-1,-2.170929909E-1
2.928708824E0,-1.838580668E-1,9.271001816E-2,-1.515626907E-1
2.933708824E0,-1.820415854E-1,6.958961487E-2,-1.058435440E-1
2.938708824E0,-1.530964077E-1,5.397462845E-2,-5.468177795E-2
2.943708824E0,-1.215250492E-1,3.780031204E-2,-3.849315643E-2
2.948708824E0,-8.030340075E-2,1.099538803E-2,-2.286148071E-2
2.953708824E0,-3.410381079E-2,-1.465368271E-2,-1.890277863E-2
2.958708824E0,1.401531696E-2,-3.697538376E-2,-2.601623535E-3
2.963708824E0,6.496906281E-2,-5.768346786E-2,-1.149749756E-2
2.968708824E0,1.033172607E-1,-9.020757675E-2,-4.425716400E-2
2.973708824E0,1.571787596E-1,-1.339993477E-1,-6.914424896E-2
2.978708824E0,1.717635393E-1,-1.563987732E-1,-9.572792053E-2
2.983708824E0,1.266615689E-1,-1.472730637E-1,-8.702087402E-2
2.988708824E0,7.098862529E-2,-1.371054649E-1,-5.296039581E-2
2.993708824E0,4.984182119E-2,-1.467547417E-1,1.327800751E-2
2.998708824E0,4.971420765E-2,-1.582708359E-1,7.196617126E-2
3.003708824E0,5.198398232E-2,-1.356678009E-1,1.235361099E-1
3.008708824E0,7.451108098E-2,-1.221318245E-1,1.615228653E-1
3.013708824E0,8.053478599E-2,-1.082201004E-1,1.840496063E-1
3.018708824E0,4.753851891E-2,-6.930637360E-2,1.955575943E-1
3.023708824E0,-1.048076153E-2,-4.658794403E-2,2.071866989E-1
3.028708824E0,-6.398782134E-2,-4.998016357E-2,1.990556717E-1
3.033708824E0,-1.032634974E-1,-3.102922440E-2,1.933593750E-1
3.038708824E0,-1.143298149E-1,-1.708316803E-2,1.780033112E-1
3.043708824E0,-7.010200620E-2,-1.144409180E-5,1.956577301E-1
3.048708824E0,-1.273262501E-2,1.461935043E-2,2.177629471E-1
3.053708824E0,1.422613859E-3,3.792715073E-2,2.341814041E-1
3.058708824E0,1.068118215E-2,4.196453094E-2,2.657375336E-1
3.063708824E0,2.175590396E-2,4.009771347E-2,2.927961349E-1
3.068708824E0,2.252605557E-2,2.160692215E-2,2.729616165E-1
3.073708824E0,2.638682723E-2,1.653146744E-2,2.565860748E-1
3.078708824E0,5.581432581E-2,-7.605552673E-3,2.523574829E-1
3.083708824E0,8.739176393E-2,-1.730537415E-2,2.658281326E-1
3.088708824E0,1.276030838E-1,-3.644037247E-2,2.947034836E-1
3.093708824E0,1.790187806E-1,-6.194925308E-2,2.987108231E-1
3.098708824E0,2.208079696E-1,-7.564210892E-2,2.781686783E-1
3.103708824E0,2.306697220E-1,-5.920600891E-2,2.666692734E-1
3.108708824E0,2.115738094E-1,-4.297637939E-2,2.629652023E-1
3.113708824E0,2.071730494E-1,-5.283927917E-2,2.203826904E-1
3.118708824E0,2.122016847E-1,-5.746698380E-2,1.459999084E-1
3.123708824E0,2.233834565E-1,-5.324554443E-2,7.128524780E-2
3.128708824E0,1.966124028E-1,-2.651166916E-2,-2.399635315E-2
3.133708824E0,1.371728480E-1,-6.760597229E-3,-9.116649628E-2
3.138708824E0,9.164616466E-2,-1.014661789E-2,-1.389150620E-1
3.143708824E0,5.964174867E-2,-1.327991486E-3,-1.636104584E-1
3.148708824E0,2.188837528E-2,3.632736206E-2,-1.715431213E-1
3.153708824E0,1.255860925E-2,5.528402328E-2,-1.672315598E-1
3.158708824E0,1.964911819E-2,3.873491287E-2,-1.816558838E-1
3.163708824E0,-5.082666874E-3,3.708028793E-2,-2.193899155E-1
3.168708824E0,7.472872734E-3,2.847814560E-2,-2.314195633E-1
3.173708824E0,4.171642661E-2,9.468078613E-3,-2.143917084E-1
3.178708824E0,7.322189212E-2,2.437114716E-2,-1.710987091E-1
3.183708824E0,9.624287486E-2,2.979898453E-2,-1.151561737E-1
3.188708824E0,9.006789327E-2,4.994869232E-3,-8.110237122E-2
3.193708824E0,9.110158682E-2,-1.078557968E-2,-7.014083862E-2
3.198708824E0,5.931890011E-2,-1.036071777E-2,-6.884002686E-2
3.203708824E0,7.419884205E-4,1.537418365E-2,-5.840015411E-2
3.208708824E0,-1.567757130E-2,7.658004761E-3,-6.075096130E-2
3.213708824E0,-4.069441557E-2,7.606029510E-3,-9.405040741E-2
3.218708824E0,-8.646833897E-2,2.310943604E-2,-1.144189835E-1
3.223708824E0,-1.230525672E-1,4.276895523E-2,-9.424114227E-2
3.228708824E0,-1.203194559E-1,4.540777206E-2,-7.988071442E-2
3.233708824E0,-1.218749881E-1,3.994512558E-2,-3.144168854E-2
3.238708824E0,-1.149403453E-1,3.051328659E-2,-2.476978302E-2
3.243708824E0,-8.330643177E-2,4.562377930E-3,-7.367134094E-3
3.248708824E0,-7.053855062E-2,-5.140304565E-4,3.574371338E-3
3.253708824E0,-6.960192323E-2,1.817035675E-2,2.878093719E-2
3.258708824E0,-9.049752355E-2,3.043556213E-2,4.734420776E-2
3.263708824E0,-1.073853970E-1,3.038406372E-2,3.318309784E-2
3.268708824E0,-9.436568618E-2,6.467342377E-3,4.516601562E-3
3.273708824E0,-6.801646948E-2,1.085281372E-2,-2.015209198E-2
3.278708824E0,-2.284133434E-2,2.379226685E-2,-3.748416901E-2
3.283708824E0,4.692873359E-2,1.498126984E-2,-6.073856354E-2
3.288708824E0,8.206787705E-2,1.169204712E-2,-9.986400604E-2
3.293708824E0,9.362435341E-2,7.308006287E-3,-1.485300064E-1
3.298708824E0,5.969932675E-2,-2.859115601E-3,-1.475305557E-1
3.303708824E0,1.173013449E-2,-1.397895813E-2,-1.266813278E-1
3.308708824E0,-4.143944383E-2,-1.671934128E-2,-8.352565765E-2
3.313708824E0,-1.083670557E-1,-4.063606262E-3,-1.530551910E-2
3.318708824E0,-1.787413657E-1,3.153324127E-3,5.696487427E-2
3.323708824E0,-2.482421100E-1,1.917362213E-3,1.139745712E-1
3.328708824E0,-2.708534598E-1,7.875919342E-3,1.814851761E-1
3.333708824E0,-2.645715773E-1,1.810598373E-2,2.403793335E-1
3.338708824E0,-2.197048068E-1,4.249477386E-2,2.797441483E-1
3.343708824E0,-1.701160669E-1,6.066513062E-2,3.029699326E-1
3.348708824E0,-1.124264300E-1,6.546688080E-2,2.549858093E-1
3.353708824E0,-3.910598159E-2,5.776357651E-2,1.694955826E-1
3.358708824E0,3.191661835E-2,4.986381531E-2,4.495048523E-2
3.363708824E0,6.819948554E-2,5.321455002E-2,-5.215358734E-2
3.368708824E0,1.043795347E-1,5.548238754E-2,-1.341619492E-1
3.373708824E0,1.405632496E-1,4.122114182E-2,-2.117614746E-1
3.378708824E0,1.562020928E-1,5.095338821E-2,-2.531161308E-1
3.383708824E0,1.379418671E-1,6.692266464E-2,-2.656688690E-1
3.388708824E0,8.772504330E-2,6.881523132E-2,-2.743926048E-1
3.393708824E0,6.822219491E-2,4.361867905E-2,-2.729492188E-1
3.398708824E0,8.085659146E-2,1.665973663E-2,-2.572917938E-1
3.403708824E0,9.197735786E-2,2.082967758E-2,-2.233171463E-1
3.408708824E0,8.337560296E-2,3.287744522E-2,-1.783533096E-1
3.413708824E0,4.682970047E-2,2.632474899E-2,-1.370439529E-1
3.418708824E0,2.080950141E-2,5.792617798E-3,-1.023502350E-1
3.423708824E0,-1.247283816E-2,8.340358734E-3,-6.499767303E-2
3.428708824E0,-1.493027806E-2,8.792400360E-3,-1.261234283E-2
3.433708824E0,1.403260231E-2,-8.316040039E-4,-1.886940002E-2
3.438708824E0,5.296650529E-2,-1.240062714E-2,-3.322124481E-2
3.443708824E0,7.119199634E-2,-1.897907257E-2,-5.577850342E-2
3.448708824E0,9.678864479E-2,-2.068519592E-2,-6.235790253E-2
3.453708824E0,1.279210746E-1,-2.011632919E-2,-3.762817383E-2
3.458708824E0,1.832122207E-1,-2.850914001E-2,-4.958343506E-2
3.463708824E0,2.297933400E-1,-4.461479187E-2,-5.507278442E-2
3.468708824E0,2.588854432E-1,-4.559373856E-2,-7.332134247E-2
3.473708824E0,3.132248521E-1,-4.916048050E-2,-7.108974457E-2
3.478708824E0,3.579922616E-1,-5.886363983E-2,-5.329895020E-2
3.483708824E0,3.894190788E-1,-4.695081711E-2,-2.159595490E-2
3.488708824E0,4.331091940E-1,-4.045438766E-2,-2.687931061E-2
3.493708824E0,5.274877548E-1,-4.981136322E-2,-5.294990540E-2
3.498708824E0,5.673315525E-1,-5.956315994E-2,-5.849075317E-2
3.503708824E0,5.536676049E-1,-3.325128555E-2,-4.976463318E-2
3.508708824E0,4.995881319E-1,-2.700042725E-2,-2.946662903E-2
3.513708824E0,3.949743211E-1,-2.692270279E-2,-1.128292084E-2
3.518708824E0,2.493534982E-1,-7.746219635E-3,2.147197723E-2
3.523708824E0,1.071865857E-1,2.348184586E-2,7.822799683E-2
3.528708824E0,3.899267316E-2,8.009576797E-2,1.535615921E-1
3.533708824E0,3.072983027E-2,1.278920174E-1,2.314519882E-1
3.538708824E0,9.766170382E-2,1.693720818E-1,2.885351181E-1
3.543708824E0,2.218411565E-1,1.971740723E-1,2.865037918E-1
3.548708824E0,3.744634986E-1,1.930546761E-1,2.103595734E-1
3.553708824E0,5.229344368E-1,1.394023895E-1,1.154737473E-1
3.558708824E0,6.214464307E-1,9.555673599E-2,-1.263999939E-2
3.563708824E0,6.831448078E-1,6.298255920E-2,-1.013917923E-1
3.568708824E0,7.043589354E-1,3.963470459E-2,-1.362314224E-1
3.573708824E0,6.833460331E-1,2.565526962E-2,-1.480178833E-1
3.578708824E0,6.106153727E-1,1.772499084E-2,-1.396284103E-1
3.583708824E0,5.446368456E-1,-3.409147263E-2,-1.224031448E-1
3.588708824E0,5.019981861E-1,-8.176040649E-2,-4.115009308E-2
3.593708824E0,3.565353155E-1,-4.672718048E-2,9.896087646E-2
3.598708824E0,2.301085889E-1,-3.691864014E-2,2.015056610E-1
3.603708824E0,1.330605447E-1,-5.956506729E-2,3.074989319E-1
3.608708824E0,8.354172111E-2,-8.539199829E-2,3.854665756E-1
3.613708824E0,8.133155107E-2,-8.219575882E-2,4.331655502E-1
3.618708824E0,1.416728199E-1,-7.812356949E-2,4.756813049E-1
3.623708824E0,2.276245803E-1,-5.198335648E-2,4.768505096E-1
3.628708824E0,3.020912707E-1,-5.307388306E-2,4.682817459E-1
3.633708824E0,3.806357682E-1,-5.902004242E-2,4.394083023E-1
3.638708824E0,4.007832408E-1,-4.746294022E-2,3.917074203E-1
3.643708824E0,4.223022759E-1,-4.996538162E-2,3.251333237E-1
3.648708824E0,4.631589353E-1,-6.657075882E-2,2.513322830E-1
3.653708824E0,4.723713398E-1,-7.837724686E-2,1.833648682E-1
3.658708824E0,4.658970237E-1,-8.630609512E-2,1.264495850E-1
3.663708824E0,4.148173630E-1,-4.990053177E-2,1.093702316E-1
3.668708824E0,3.982719183E-1,-1.809167862E-2,1.400594711E-1
3.673708824E0,3.613084257E-1,-1.136922836E-2,2.016773224E-1
3.678708824E0,3.074374199E-1,3.400325775E-3,2.655038834E-1
3.683708824E0,2.780829370E-1,1.492214203E-2,3.012733459E-1
3.688708824E0,2.853605151E-1,-6.152629852E-3,3.077993393E-1
3.693708824E0,2.978214622E-1,-1.495218277E-2,3.271341324E-1
3.698708824E0,3.387447000E-1,-2.213335037E-2,3.342180252E-1
3.703708824E0,3.837967813E-1,-2.484703064E-2,3.166103363E-1
3.708708824E0,4.394480288E-1,-4.724502563E-2,2.884635925E-1
3.713708824E0,4.336634278E-1,-5.653476715E-2,2.268705368E-1
3.718708824E0,4.025165439E-1,-5.466794968E-2,1.608247757E-1
3.723708824E0,3.619673252E-1,-5.999374390E-2,9.590816498E-2
3.728708824E0,3.559930623E-1,-9.162521362E-2,1.822757721E-2
3.733708824E0,3.368808329E-1,-9.776401520E-2,-8.199214935E-2
3.738708824E0,3.064358234E-1,-1.036753654E-1,-1.691522598E-1
3.743708824E0,2.696094215E-1,-1.114883423E-1,-2.186622620E-1
3.748708824E0,2.174021304E-1,-1.004528999E-1,-2.167119980E-1
3.753708824E0,1.778618693E-1,-1.010713577E-1,-2.014169693E-1
3.758708824E0,1.528005451E-1,-8.916234970E-2,-1.764144897E-1
3.763708824E0,9.949311614E-2,-5.419921875E-2,-1.598939896E-1
3.768708824E0,7.180457562E-2,-3.373861313E-2,-1.491203308E-1
3.773708824E0,6.905728579E-2,-3.101205826E-2,-1.129798889E-1
3.778708824E0,7.353512943E-2,-6.802082062E-3,-5.886077881E-2
3.783708824E0,1.052132845E-1,-1.949357986E-2,-2.465057373E-2
3.788708824E0,9.802826494E-2,-2.307128906E-2,-4.712963104E-2
3.793708824E0,8.357454836E-2,-4.080772400E-2,-8.682250977E-2
3.798708824E0,9.753625095E-2,-7.457828522E-2,-1.452102661E-1
3.803708824E0,1.205421388E-1,-1.139802933E-1,-2.158060074E-1
3.808708824E0,1.250324547E-1,-1.295061111E-1,-2.566909790E-1
3.813708824E0,1.204013228E-1,-1.255407333E-1,-2.538814545E-1
3.818708824E0,1.521774828E-1,-1.578326225E-1,-2.177286148E-1
3.823708824E0,1.645069420E-1,-1.871538162E-1,-1.627473831E-1
3.828708824E0,1.528415829E-1,-1.620235443E-1,-9.591865540E-2
3.833708824E0,1.242232323E-1,-1.412210464E-1,-1.592159271E-2
3.838708824E0,9.268196672E-2,-1.378517151E-1,9.442043304E-2
3.843708824E0,6.985437870E-2,-1.348762512E-1,1.671743393E-1
3.848708824E0,5.342910439E-2,-1.146321297E-1,2.442731857E-1
3.853708824E0,4.443892837E-2,-1.148920059E-1,2.843255997E-1
3.858708824E0,4.906615615E-2,-1.184525490E-1,3.018331528E-1
3.863708824E0,6.192582101E-2,-1.114778519E-1,2.915506363E-1
3.868708824E0,3.660979122E-2,-1.084866524E-1,2.690668106E-1
3.873708824E0,-2.612243593E-2,-1.076507568E-1,2.121982574E-1
3.878708824E0,-1.205256730E-1,-1.131391525E-1,1.371793747E-1
3.883708824E0,-2.219204605E-1,-1.009211540E-1,6.465911865E-2
3.888708824E0,-2.904782891E-1,-1.055517197E-1,1.685237885E-2
3.893708824E0,-3.180558085E-1,-1.162962914E-1,-3.907299042E-2
3.898708824E0,-3.577165306E-1,-1.094398499E-1,-6.426334381E-2
3.903708824E0,-3.984656334E-1,-9.932661057E-2,-6.272029877E-2
3.908708824E0,-4.050032198E-1,-1.033735275E-1,-3.427886963E-2
3.913708824E0,-4.282209873E-1,-1.039638519E-1,-3.460884094E-3
3.918708824E0,-4.460615516E-1,-8.818483353E-2,6.141662598E-2
3.923708824E0,-4.876333773E-1,-7.428312302E-2,1.100168228E-1
3.928708824E0,-5.518935919E-1,-6.207466125E-2,1.431560516E-1
3.933708824E0,-6.129014492E-1,-6.288194656E-2,1.510381699E-1
3.938708824E0,-6.792048216E-1,-6.018781662E-2,1.403913498E-1
3.943708824E0,-7.209302187E-1,-4.684877396E-2,1.208419800E-1
3.948708824E0,-7.631932497E-1,-1.594209671E-2,1.023368835E-1
3.953708824E0,-8.076393604E-1,1.814937592E-2,6.638622284E-2
3.958708824E0,-8.292564750E-1,2.697896957E-2,4.338741302E-2
3.963708824E0,-8.242399693E-1,2.588939667E-2,6.998062134E-3
3.968708824E0,-7.923516035E-1,2.908134460E-2,-2.204704285E-2
3.973708824E0,-7.472654581E-1,4.031848907E-2,-7.653236389E-2
3.978708824E0,-7.222281098E-1,3.893518448E-2,-1.146183014E-1
3.983708824E0,-6.910598874E-1,5.677700043E-2,-1.552371979E-1
3.988708824E0,-6.659927368E-1,4.597568512E-2,-1.873064041E-1
3.993708824E0,-6.505041122E-1,4.135465622E-2,-1.906375885E-1
3.998708824E0,-6.658608913E-1,5.544185638E-2,-1.786289215E-1
4.003708824E0,-6.723125577E-1,6.638908386E-2,-1.644191742E-1
4.008708824E0,-6.627904177E-1,8.330011368E-2,-1.595563889E-1
4.013708824E0,-6.583701372E-1,6.328105927E-2,-1.748447418E-1
4.018708824E0,-6.592209339E-1,7.664394379E-2,-2.100439072E-1
4.023708824E0,-6.308708191E-1,7.163810730E-2,-2.553229332E-1
4.028708824E0,-5.915848613E-1,5.291318893E-2,-3.036932945E-1
4.033708824E0,-5.526024103E-1,4.408788681E-2,-3.140006065E-1
4.038708824E0,-5.031517744E-1,4.480695724E-2,-2.897100449E-1
4.043708824E0,-4.444164038E-1,5.511856079E-2,-2.254133224E-1
4.048708824E0,-3.886533082E-1,6.892728806E-2,-1.745147705E-1
4.053708824E0,-3.485189974E-1,4.657840729E-2,-1.546039581E-1
4.058708824E0,-3.291429281E-1,1.006555557E-2,-1.570243835E-1
4.063708824E0,-3.560069203E-1,-2.547931671E-2,-1.652565002E-1
4.068708824E0,-4.355165064E-1,-3.495693207E-2,-1.719379425E-1
4.073708824E0,-5.049964190E-1,-4.859304428E-2,-1.588077545E-1
4.078708824E0,-5.504194498E-1,-8.141374588E-2,-1.166553497E-1
4.083708824E0,-6.185569167E-1,-8.516931534E-2,-5.689239502E-2
4.088708824E0,-6.813501120E-1,-8.071804047E-2,-2.673530579E-2
4.093708824E0,-7.224228382E-1,-7.108831406E-2,2.532196045E-2
4.098708824E0,-7.319381237E-1,-5.912351608E-2,6.750297546E-2
4.103708824E0,-7.614330053E-1,-6.275892258E-2,9.114074707E-2
4.108708824E0,-8.219811916E-1,-3.383398056E-2,1.230792999E-1
4.113708824E0,-8.128985167E-1,-2.716922760E-2,1.701555252E-1
4.118708824E0,-7.548778057E-1,-3.673076630E-2,1.836833954E-1
4.123708824E0,-6.703495979E-1,-1.205110550E-2,2.007179260E-1
4.128708824E0,-5.757240057E-1,2.073049545E-2,2.175292969E-1
4.133708824E0,-5.171669722E-1,5.278396606E-2,2.041749954E-1
4.138708824E0,-5.032262802E-1,6.116437912E-2,1.540002823E-1
4.143708824E0,-4.834187031E-1,7.505416870E-2,7.856273651E-2
4.148708824E0,-4.567967057E-1,5.914258957E-2,-3.417301178E-2
4.153708824E0,-4.384709597E-1,7.849550247E-2,-1.376237869E-1
4.158708824E0,-3.977997601E-1,1.025376320E-1,-2.167186737E-1
4.163708824E0,-3.618482053E-1,1.037740707E-1,-2.791810036E-1
4.168708824E0,-3.208445609E-1,1.040964127E-1,-3.328275681E-1
4.173708824E0,-2.833433151E-1,9.235572815E-2,-3.581161499E-1
4.178708824E0,-2.617682815E-1,7.653999329E-2,-3.600664139E-1
4.183708824E0,-2.748475671E-1,7.389640808E-2,-3.454308510E-1
4.188708824E0,-3.153544068E-1,7.707786560E-2,-3.006892204E-1
4.193708824E0,-3.667653799E-1,7.146215439E-2,-2.500429153E-1
4.198708824E0,-4.209237099E-1,4.220581055E-2,-1.767425537E-1
4.203708824E0,-4.852497578E-1,3.777837753E-2,-1.040344238E-1
4.208708824E0,-5.437350273E-1,8.155822754E-3,-6.138610840E-2
4.213708824E0,-5.807563066E-1,-1.574325562E-2,1.462268829E-2
4.218708824E0,-5.830824971E-1,-3.123950958E-2,1.086483002E-1
4.223708824E0,-5.513514280E-1,-3.441715240E-2,2.026004791E-1
4.228708824E0,-4.996486902E-1,-3.628730774E-2,2.722778320E-1
4.233708824E0,-4.561542273E-1,-4.074478149E-2,2.832527161E-1
4.238708824E0,-4.865866899E-1,-3.581142426E-2,2.646274567E-1
4.243708824E0,-5.126078129E-1,-2.952098846E-2,2.135171890E-1
4.248708824E0,-5.587205291E-1,-1.070261002E-2,1.562767029E-1
4.253708824E0,-5.989140272E-1,3.869199753E-2,9.909152985E-2
4.258708824E0,-6.236377358E-1,9.010505676E-2,6.712722778E-2
4.263708824E0,-6.186307669E-1,1.161913872E-1,2.070236206E-2
4.268708824E0,-5.979272127E-1,1.401686668E-1,-2.859020233E-2
4.273708824E0,-5.687882304E-1,1.725802422E-1,-1.116752625E-1
4.278708824E0,-5.547691584E-1,1.782603264E-1,-1.717023849E-1
4.283708824E0,-5.099790096E-1,1.802325249E-1,-1.964845657E-1
4.288708824E0,-4.457150102E-1,1.783499718E-1,-1.866149902E-1
4.293708824E0,-3.382224441E-1,1.555233002E-1,-1.973829269E-1
4.298708824E0,-2.166367769E-1,1.231150627E-1,-2.266211510E-1
4.303708824E0,-1.420058012E-1,9.925079346E-2,-2.178797722E-1
4.308708824E0,-9.036439657E-2,5.992460251E-2,-1.898765564E-1
4.313708824E0,-7.279586792E-2,4.602479935E-2,-1.555318832E-1
4.318708824E0,-8.592742682E-2,4.509830475E-2,-1.210184097E-1
4.323708824E0,-1.321031451E-1,2.849054337E-2,-1.113634109E-1
4.328708824E0,-1.149569154E-1,-3.613853455E-2,-1.413364410E-1
4.333708824E0,-9.917914867E-2,-6.509494781E-2,-1.438894272E-1
4.338708824E0,-3.543847799E-2,-1.007337570E-1,-9.180450439E-2
4.343708824E0,6.093692780E-2,-1.359667778E-1,7.002830505E-3
4.348708824E0,1.420509219E-1,-1.278872490E-1,1.445884705E-1
4.353708824E0,2.034806311E-1,-7.917547226E-2,2.542781830E-1
4.358708824E0,2.204384506E-1,-2.779293060E-2,3.096580505E-1
4.363708824E0,1.827326715E-1,3.000736237E-2,2.793846130E-1
4.368708824E0,1.506153643E-1,9.276962280E-2,1.914072037E-1
4.373708824E0,5.164045095E-2,1.599969864E-1,3.150272369E-2
4.378708824E0,4.771566391E-2,2.074751854E-1,-1.447029114E-1
4.383708824E0,5.003386736E-2,2.346119881E-1,-2.889928818E-1
4.388708824E0,-1.394081116E-2,2.857971191E-1,-4.003982544E-1
4.393708824E0,-1.051205397E-1,3.695178032E-1,-4.294729233E-1
4.398708824E0,-2.295117974E-1,4.579892159E-1,-5.316281319E-1
4.403708824E0,-3.665481806E-1,5.065188408E-1,-6.533942223E-1
4.408708824E0,-3.984559774E-1,5.006551743E-1,-6.851506233E-1
4.413708824E0,-1.111246943E-1,3.119935989E-1,-6.816926003E-1
4.418708824E0,8.517066240E-1,-4.213409424E-1,-4.337735176E-1
4.423708824E0,1.477973700E0,-5.227794647E-1,3.669834137E-1
4.428708824E0,7.036610246E-1,4.315776825E-1,1.273123741E0
4.433708824E0,-3.555139303E-1,8.978023529E-1,1.382406235E0
4.438708824E0,-9.817062020E-1,5.922679901E-1,7.711744308E-1
4.443708824E0,-9.407806993E-1,2.355198860E-1,7.040224075E-1
4.448708824E0,-5.780845881E-1,1.288838387E-1,1.256399155E0
4.453708824E0,-1.283028722E-1,1.855969429E-1,1.603877068E0
4.458708824E0,2.801775336E-1,1.085524559E-1,1.610227585E0
4.463708824E0,5.201418996E-1,-1.520342827E-1,1.266977310E0
4.468708824E0,6.869233847E-1,-4.092216492E-1,6.771116257E-1
4.473708824E0,1.065627217E0,-6.221818924E-1,7.500553131E-2
4.478708824E0,1.204024792E0,-6.640677452E-1,-4.249110222E-1
4.483708824E0,8.916559219E-1,-3.136115074E-1,-6.314001083E-1
4.488708824E0,6.105580330E-1,-1.312909126E-1,-1.177217484E0
4.493708824E0,7.431238890E-3,1.872248650E-1,-1.348145008E0
4.498708824E0,-3.247255087E-1,4.436426163E-1,-1.192831993E0
4.503708824E0,-2.612907290E-1,5.295825005E-1,-8.150382042E-1
4.508708824E0,-2.922427654E-2,6.085042953E-1,-2.858176231E-1
4.513708824E0,2.590398788E-1,6.364550591E-1,2.551126480E-1
4.518708824E0,4.831473231E-1,6.349563599E-1,7.473382950E-1
4.523708824E0,6.319899559E-1,6.234970093E-1,1.130304337E0
4.528708824E0,8.241557479E-1,5.533061028E-1,1.356648445E0
4.533708824E0,1.457275748E0,2.253789902E-1,1.464278221E0
4.538708824E0,2.031666994E0,-3.388710022E-1,1.068742275E0
4.543708824E0,1.877680063E0,-3.946146965E-1,7.079062462E-1
4.548708824E0,1.347408533E0,-8.688545227E-2,5.782227516E-1
4.553708824E0,8.271408081E-1,-3.248405457E-2,1.875510216E-1
4.558708824E0,1.666621715E-1,-1.445231438E-1,-6.908240318E-1
4.563708824E0,-3.076554835E-1,-1.860470772E-1,-1.588072300E0
4.568708824E0,-4.636812210E-1,-1.907420158E-1,-2.207280159E0
4.573708824E0,-4.539772272E-1,-2.259774208E-1,-2.400133133E0
4.578708824E0,-3.913067579E-1,-3.706989288E-1,-2.332747459E0
4.583708824E0,-3.366535902E-1,-5.348281860E-1,-2.216247082E0
4.588708824E0,-2.940149605E-1,-6.068897247E-1,-2.169314861E0
4.593708824E0,-1.709421575E-1,-5.762720108E-1,-2.247231960E0
4.598708824E0,-5.226126313E-2,-4.006485939E-1,-2.145888329E0
4.603708824E0,-8.860763907E-2,-4.666037560E-1,-1.917920113E-1
4.608708824E0,-8.477996588E-1,-2.758154869E-1,3.680447578E0
4.613708824E0,-1.074397087E0,1.657824516E-1,4.541580200E0
4.618708824E0,-5.895364285E-1,1.745886803E-1,3.101210594E0
4.623708824E0,-4.429633915E-1,-3.047394753E-1,2.311517715E0
4.628708824E0,-5.441868305E-1,-9.474563599E-1,1.846721172E0
4.633708824E0,-1.801359653E-1,-1.392910957E0,1.480357170E0
4.638708824E0,4.933300614E-1,-1.624451637E0,9.818000793E-1
4.643708824E0,1.021898508E0,-1.701152802E0,5.396552086E-1
4.648708824E0,1.316537499E0,-1.672085762E0,3.834233284E-1
4.653708824E0,1.475754261E0,-1.590637207E0,5.196785927E-1
4.658708824E0,1.629396558E0,-1.524123669E0,6.718473434E-1
4.663708824E0,1.659539342E0,-1.351312160E0,8.667354584E-1
4.668708824E0,1.770696759E0,-1.168985844E0,7.058935165E-1
4.673708824E0,2.003585100E0,-9.973173141E-1,5.048913956E-1
4.678708824E0,2.159574986E0,-7.741265297E-1,2.854900360E-1
4.683708824E0,2.091154099E0,-4.643473625E-1,5.447721481E-2
4.688708824E0,1.869623065E0,-2.208042145E-1,-7.064294815E-2
4.693708824E0,1.728160739E0,3.112459183E-2,-1.899886131E-1
4.698708824E0,1.605076790E0,1.951394081E-1,-3.406109810E-1
4.703708824E0,1.497410417E0,3.100767136E-1,-5.056438446E-1
4.708708824E0,1.342209101E0,3.735575676E-1,-6.600589752E-1
4.713708824E0,1.322293162E0,2.965435982E-1,-1.015477657E0
4.718708824E0,1.416867375E0,8.657360077E-2,-1.684092999E0
4.723708824E0,1.291143656E0,-1.867389679E-1,-2.210721016E0
4.728708824E0,1.128925323E0,-4.330482483E-1,-2.589726448E0
4.733708824E0,1.103239298E0,-5.297341347E-1,-2.948289871E0
4.738708824E0,1.088822842E0,-4.914236069E-1,-3.080016136E0
4.743708824E0,1.058189392E0,-3.953080177E-1,-3.110549927E0
4.748708824E0,1.153046608E0,-3.497233391E-1,-3.152506828E0
4.753708824E0,1.380642653E0,-3.712067604E-1,-3.271532059E0
4.758708824E0,1.642574310E0,-3.799958229E-1,-3.544119835E0
4.763708824E0,1.821960449E0,-2.738928795E-1,-3.722378254E0
4.768708824E0,1.381928682E0,-1.131873131E-1,-3.068916798E0
4.773708824E0,4.083393812E-1,1.487708092E-1,-1.706113815E0
4.778708824E0,2.561954856E-1,2.896494865E-1,-1.864017010E0
4.783708824E0,3.382419050E-2,2.757759094E-1,-1.674551964E0
4.788708824E0,-3.110909462E-1,1.762628555E-1,-1.183690548E0
4.793708824E0,-1.377112985E0,4.579238892E-1,-3.064918518E-2
4.798708824E0,-2.716940880E0,6.388378143E-1,8.527531624E-1
4.803708824E0,-3.814089060E0,1.184447765E0,1.671875477E0
4.808708824E0,-4.777240753E0,1.678043365E0,2.057629108E0
4.813708824E0,-5.008329868E0,1.894120216E0,1.883157253E0
4.818708824E0,-4.695591450E0,1.862734318E0,1.203609467E0
4.823708824E0,-4.025063515E0,1.681931019E0,3.950781822E-1
4.828708824E0,-2.836624146E0,1.083983421E0,-3.838658333E-1
4.833708824E0,-1.506801963E0,3.416447639E-1,-9.362506866E-1
4.838708824E0,-7.387865186E-1,-1.014413834E-1,-1.311241627E0
4.843708824E0,-5.440003872E-1,-2.660999298E-1,-1.383115768E0
4.848708824E0,-6.109133959E-1,-3.287248611E-1,-1.143733025E0
4.853708824E0,-7.479701638E-1,-3.574428558E-1,-6.652960777E-1
4.858708824E0,-7.298206687E-1,-4.451403618E-1,-2.486605644E-1
4.863708824E0,-5.877352953E-1,-4.837059975E-1,3.848466873E-1
4.868708824E0,-1.194487810E-1,-4.646387100E-1,1.128465652E0
4.873708824E0,3.602980375E-1,-3.366169930E-1,1.758877754E0
4.878708824E0,7.950438261E-1,-4.432210922E-1,2.079705238E0
4.883708824E0,1.189019680E0,-6.972885132E-1,1.941604614E0
4.888708824E0,1.310260177E0,-9.644241333E-1,1.392513275E0
4.893708824E0,1.108648896E0,-1.060882568E0,4.189729691E-1
4.898708824E0,6.875788569E-1,-7.890362740E-1,2.504692078E-1
4.903708824E0,-1.926984191E-1,-3.937726021E-1,8.656415939E-1
4.908708824E0,-9.070715904E-1,-1.859564781E-1,1.223638535E0
4.913708824E0,-9.812135696E-1,-3.601746559E-1,1.517169952E0
4.918708824E0,-7.871180773E-1,-5.169067383E-1,2.292438507E0
4.923708824E0,4.155636430E-1,-9.047002792E-1,2.708507538E0
4.928708824E0,1.434775233E0,-1.025269985E0,3.057491302E0
4.933708824E0,1.290148735E0,-4.052553177E-1,2.937966347E0
4.938708824E0,4.700868726E-1,5.330162048E-1,2.556502819E0
4.943708824E0,-5.985623598E-2,9.346203804E-1,2.361203671E0
4.948708824E0,1.846293211E-1,5.171027184E-1,1.977191448E0
4.953708824E0,-3.473162651E-3,1.020741463E-1,1.125241280E0
4.958708824E0,2.919656634E-1,-1.536211967E-1,5.540781021E-1
4.963708824E0,7.629791498E-1,-3.150911331E-1,1.065945625E-1
4.968708824E0,6.939851046E-1,-2.344942093E-2,-5.625343323E-1
4.973708824E0,5.896904469E-1,3.690381050E-1,-1.011338234E0
4.978708824E0,1.213004708E0,2.845730782E-1,-1.022575855E0
4.983708824E0,1.844371319E0,5.127763748E-2,-9.343891144E-1
4.988708824E0,2.150012016E0,9.546089172E-2,-7.171745300E-1
4.993708824E0,2.400871038E0,6.025905609E-1,-4.302101135E-1
4.998708824E0,1.968667269E0,9.100675583E-1,-5.118136406E-1
5.003708824E0,1.403995633E0,9.808597565E-1,-9.282817841E-1
5.008708824E0,6.728202701E-1,8.836278915E-1,-1.516399384E0
5.013708824E0,1.182228923E-1,6.461043358E-1,-2.209014893E0
5.018708824E0,2.273851633E-2,3.710927963E-1,-2.679815769E0
5.023708824E0,-3.602528572E-2,1.982517242E-1,-2.781739235E0
5.028708824E0,-3.253995180E-1,2.113208771E-1,-2.751392841E0
5.033708824E0,-2.689034343E-1,2.601194382E-1,-2.683460712E0
5.038708824E0,4.341207445E-1,3.901252747E-1,-2.266963482E0
5.043708824E0,1.402163744E0,5.681276321E-1,-1.742608547E0
5.048708824E0,1.698238492E0,7.502775192E-1,-1.318305016E0
5.053708824E0,9.016038775E-1,9.201779366E-1,-1.507552147E0
5.058708824E0,1.305886269E0,7.559299469E-1,-1.750905514E0
5.063708824E0,2.323040962E0,6.898398399E-1,-1.581551552E0
5.068708824E0,2.568170547E0,8.736248016E-1,-1.366764545E0
5.073708824E0,1.754615545E0,1.028778553E0,-1.566844463E0
5.078708824E0,6.460652351E-1,7.292528152E-1,-2.307305336E0
5.083708824E0,-3.576972485E-1,1.028347015E-2,-3.191228867E0
5.088708824E0,-1.136070013E0,-6.632013321E-1,-3.767169476E0
5.093708824E0,-1.425325632E0,-1.155001163E0,-3.738826752E0
5.098708824E0,-1.128091216E0,-1.305361271E0,-2.991026402E0
5.103708824E0,-8.424686193E-1,-1.029301167E0,-1.936438560E0
5.108708824E0,-1.432183266E0,-6.470665932E-1,-1.025655746E0
5.113708824E0,-2.346214294E0,-7.139878273E-1,-4.423332214E-1
5.118708824E0,-2.692850590E0,-1.166160583E0,7.381439209E-2
5.123708824E0,-2.328776836E0,-1.552036762E0,7.384901047E-1
5.128708824E0,-1.806266427E0,-1.655310392E0,1.452885628E0
5.133708824E0,-1.533175230E0,-1.497010469E0,2.301840782E0
5.138708824E0,-1.349321961E0,-1.328556776E0,3.081560135E0
5.143708824E0,-1.045491099E0,-1.218413591E0,3.615039825E0
5.148708824E0,-6.434433460E-1,-1.151075363E0,3.726215363E0
5.153708824E0,-5.142289400E-1,-9.882714748E-1,3.435092926E0
5.158708824E0,-1.888729334E-1,-9.538202286E-1,3.117155075E0
5.163708824E0,7.169661522E-1,-1.147228241E0,2.732620239E0
5.168708824E0,1.141347170E0,-9.093070030E-1,2.349473000E0
5.173708824E0,1.328358650E0,-3.892002106E-1,2.197048187E0
5.178708824E0,1.494730234E0,6.040048599E-2,1.941273689E0
5.183708824E0,1.659630179E0,1.699156761E-1,1.310415268E0
5.188708824E0,1.641445637E0,1.345930099E-1,5.479249954E-1
5.193708824E0,1.448470950E0,1.684536934E-1,-2.285547256E-1
5.198708824E0,1.167657375E0,2.778701782E-1,-9.758982658E-1
5.203708824E0,8.670324683E-1,3.664608002E-1,-1.457963467E0
5.208708824E0,8.984282613E-1,2.657108307E-1,-1.853093147E0
5.213708824E0,5.928303599E-1,2.291254997E-1,-2.009682178E0
5.218708824E0,1.069991589E-1,2.334961891E-1,-2.054126740E0
5.223708824E0,-2.971336842E-1,1.458134651E-1,-1.947581291E0
5.228708824E0,1.818054914E-1,2.649354935E-1,-1.795849800E0
5.233708824E0,3.879508734E0,1.078698635E0,-1.645315170E0
5.238708824E0,7.106200695E0,2.344947338E0,-1.629238605E0
5.243708824E0,5.962291241E0,2.680130005E0,-2.326479912E0
5.248708824E0,2.916107178E0,2.075750828E0,-3.603250504E0
5.253708824E0,-3.014283180E-1,1.169599533E0,-4.568173885E0
5.258708824E0,-2.088181496E0,-6.368637085E-3,-5.069334030E0
5.263708824E0,-1.920260310E0,-1.064888954E0,-4.265104771E0
5.268708824E0,-8.572690487E-1,-1.167262793E0,-2.221198082E0
5.273708824E0,4.427552223E-1,-8.550980091E-1,1.342010498E-1
5.278708824E0,4.265679121E-1,-3.862218857E-1,2.354528427E0
5.283708824E0,1.626746953E-1,-2.630925179E-1,3.775482178E0
5.288708824E0,-9.291049838E-2,-6.216182709E-1,4.358807564E0
5.293708824E0,-1.724081337E-1,-1.273302794E0,4.394667625E0
5.298708824E0,-1.380034983E-1,-1.740952015E0,4.505935669E0
5.303708824E0,-2.542068660E-1,-1.734233141E0,4.607331276E0
5.308708824E0,-6.958302259E-1,-1.415159702E0,4.268090248E0
5.313708824E0,-1.042565346E0,-1.185150385E0,3.451536179E0
5.318708824E0,-1.066279411E0,-1.153155565E0,2.575879097E0
5.323708824E0,-1.018840432E0,-1.093000174E0,1.845458031E0
5.328708824E0,-1.214678049E0,-8.704857826E-1,1.318943024E0
5.333708824E0,-1.497939467E0,-6.435370445E-1,9.568672180E-1
5.338708824E0,-1.562391520E0,-6.124949455E-1,8.724527359E-1
5.343708824E0,-1.300372958E0,-7.188339233E-1,1.230197906E0
5.348708824E0,-1.099990368E0,-5.336270332E-1,1.646527290E0
5.353708824E0,-7.321104407E-1,-1.310963631E-1,2.115650177E0
5.358708824E0,-7.786706090E-2,3.295445442E-1,2.396569252E0
5.363708824E0,2.525990009E-1,6.142730713E-1,2.261872292E0
5.368708824E0,2.430792451E-1,8.399825096E-1,1.763922691E0
5.373708824E0,1.164699495E-1,1.013107300E0,1.024903297E0
5.378708824E0,7.366904616E-2,9.122400284E-1,2.021465302E-1
5.383708824E0,-1.253318787E-1,7.223658562E-1,-3.039464951E-1
5.388708824E0,-1.491310596E-1,5.575003624E-1,-6.704988480E-1
5.393708824E0,-1.837418377E-1,4.907050133E-1,-8.267526627E-1
5.398708824E0,-1.452260315E-1,4.610900879E-1,-8.466010094E-1
5.403708824E0,3.273623884E-1,1.734638214E-2,-1.043666840E0
5.408708824E0,5.395837426E-1,5.922889709E-2,-9.196934700E-1
5.413708824E0,1.213626564E-1,7.039880753E-1,-6.476402283E-1
5.418708824E0,-3.003406227E-1,1.025782585E0,-2.818984985E-1
5.423708824E0,7.228589058E-2,7.460751534E-1,9.609603882E-2
5.428708824E0,9.239077568E-1,9.468793869E-2,4.785537720E-3
5.433708824E0,1.243273735E0,-5.223655701E-2,-4.427328110E-1
5.438708824E0,6.387345791E-1,8.289637566E-1,-8.539581299E-1
5.443708824E0,-6.313297153E-2,1.427546024E0,-9.486637115E-1
5.448708824E0,-1.025544107E-1,1.278268814E0,-9.405555725E-1
5.453708824E0,2.608366907E-1,7.891287804E-1,-9.791893959E-1
5.458708824E0,3.075717092E-1,5.700197220E-1,-9.783787727E-1
5.463708824E0,4.200519323E-1,2.451887131E-1,-9.269423485E-1
5.468708824E0,7.002116442E-1,-1.912112236E-1,-9.206280708E-1
5.473708824E0,6.171599627E-1,-3.456511497E-1,-8.388977051E-1
5.478708824E0,8.400678635E-2,-1.559252739E-1,-5.468454361E-1
5.483708824E0,-4.062886238E-1,-5.250215530E-2,-2.377729416E-1
5.488708824E0,-4.852034450E-1,-2.022380829E-1,-9.452056885E-2
5.493708824E0,-4.525815845E-1,-4.031791687E-1,-9.416961670E-2
5.498708824E0,-4.067041278E-1,-4.324941635E-1,-2.444458008E-1
5.503708824E0,-3.377124667E-1,-4.041461945E-1,-3.716917038E-1
5.508708824E0,-3.940989971E-1,-3.098397255E-1,-6.106319427E-1
5.513708824E0,-5.427021384E-1,-2.019743919E-1,-9.889574051E-1
5.518708824E0,-9.038462043E-1,-1.412353516E-1,-1.358727932E0
5.523708824E0,-1.240787268E0,-1.741633415E-1,-1.312693119E0
5.528708824E0,-1.443878651E0,-2.857551575E-1,-8.479981422E-1
5.533708824E0,-1.528529167E0,-4.731345177E-1,-2.766132355E-1
5.538708824E0,-1.691672802E0,-5.568323135E-1,4.155235291E-1
5.543708824E0,-1.700114608E0,-6.711606979E-1,8.682508469E-1
5.548708824E0,-1.504714251E0,-8.366899490E-1,1.038464546E0
5.553708824E0,-1.472522020E0,-8.104610443E-1,1.024781227E0
5.558708824E0,-1.407059789E0,-7.821266651E-1,9.421262741E-1
5.563708824E0,-8.554487228E-1,-1.754840136E0,4.402379990E-1
5.568708824E0,-3.886438012E-1,-2.272490978E0,-6.896915436E-1
5.573708824E0,-1.137258530E0,-1.533449411E0,-9.953069687E-1
5.578708824E0,-2.158013344E0,-6.393647194E-1,-8.575820923E-1
5.583708824E0,-2.561111212E0,-1.115417480E-1,-5.050945282E-1
5.588708824E0,-2.336516857E0,-3.153991699E-2,-2.831411362E-1
5.593708824E0,-1.799049616E0,-2.271227837E-1,-2.247896194E-1
5.598708824E0,-1.522110581E0,-4.599261284E-1,-3.398199081E-1
5.603708824E0,-1.197890043E0,-6.680731773E-1,-4.089212418E-1
5.608708824E0,-7.284137011E-1,-7.922224998E-1,-4.475421906E-1
5.613708824E0,-5.499261618E-2,-7.986927032E-1,-1.478548050E-1
5.618708824E0,9.705716372E-2,-4.778466225E-1,-5.816459656E-3
5.623708824E0,-3.613799214E-1,-1.876044273E-1,-2.996292114E-1
5.628708824E0,-1.936368942E-1,-9.919166565E-3,-1.015217781E0
5.633708824E0,4.239899516E-1,9.366178513E-2,-1.258668900E0
5.638708824E0,7.802779675E-1,2.366700172E-1,-1.286170006E0
5.643708824E0,7.187192440E-1,3.744878769E-1,-1.310672283E0
5.648708824E0,5.180171728E-1,3.113832474E-1,-1.442847252E0
5.653708824E0,3.844310045E-1,4.286813736E-2,-1.728030205E0
5.658708824E0,3.419287205E-1,-1.019358635E-1,-1.974650383E0
5.663708824E0,3.043544292E-2,3.504276276E-3,-2.099129200E0
5.668708824E0,-8.447262049E-1,3.144440651E-1,-2.194333553E0
5.673708824E0,1.256256104E-1,2.654724121E-1,-2.305461407E0
5.678708824E0,1.088572025E0,2.917866707E-1,-2.261276245E0
5.683708824E0,1.530153036E0,3.206520081E-1,-1.852481365E0
5.688708824E0,1.810767412E0,3.122410774E-1,-9.760618210E-1
5.693708824E0,1.545092702E0,3.436417580E-1,5.674457550E-1
5.698708824E0,2.230308533E0,5.155982971E-1,1.043712616E0
5.703708824E0,2.654870510E0,6.997137070E-1,1.315394402E0
5.708708824E0,2.338697195E0,6.623167992E-1,1.357122421E0
5.713708824E0,2.102373600E0,4.146032333E-1,1.323669434E0
5.718708824E0,1.913644791E0,1.848201752E-1,1.058385849E0
5.723708824E0,1.549586535E0,7.295274734E-2,8.462543488E-1
5.728708824E0,1.233587623E0,2.988147736E-2,6.824607849E-1
5.733708824E0,1.169973969E0,-2.859830856E-2,7.127895355E-1
5.738708824E0,1.282905459E0,-8.828973770E-2,8.973360062E-1
5.743708824E0,1.327663422E0,-9.138774872E-2,1.217489243E0
5.748708824E0,1.343434811E0,-2.085399628E-2,1.429060936E0
5.753708824E0,1.349488139E0,7.677364349E-2,1.584918022E0
5.758708824E0,1.313716650E0,1.647324562E-1,1.715409279E0
5.763708824E0,1.288801312E0,2.428345680E-1,1.708593369E0
5.768708824E0,1.238847494E0,2.933325768E-1,1.443403244E0
5.773708824E0,1.080566764E0,2.915520668E-1,1.081836700E0
5.778708824E0,7.255083323E-1,1.747989655E-1,8.356170654E-1
5.783708824E0,6.176270247E-1,5.120944977E-2,4.950256348E-1
5.788708824E0,3.104257584E-1,1.686100960E-1,-9.828758240E-2
5.793708824E0,1.911555529E-1,1.534395218E-1,-3.238730431E-1
5.798708824E0,-1.236690283E-1,1.160616875E-1,-1.943759918E-1
5.803708824E0,-2.359087467E-1,9.807157516E-2,2.297687531E-2
5.808708824E0,-2.799510956E-2,-7.842922211E-2,5.898666382E-2
5.813708824E0,-3.342962265E-2,-1.647272110E-1,-7.811832428E-2
5.818708824E0,-1.907237768E-1,-1.580619812E-1,-3.474564552E-1
5.823708824E0,-3.521910906E-1,-1.151552200E-1,-6.383829117E-1
5.828708824E0,-5.003733635E-1,-1.388630867E-1,-8.597068787E-1
5.833708824E0,-6.339643002E-1,-2.624998093E-1,-9.696531296E-1
5.838708824E0,-8.470007181E-1,-4.703221321E-1,-5.483174324E-1
5.843708824E0,-9.718888998E-1,-4.818296432E-1,-8.438773155E-1
5.848708824E0,-9.319609404E-1,-2.697029114E-1,-2.186042786E0
5.853708824E0,-1.138645530E0,-2.766747475E-1,-2.432535648E0
5.858708824E0,-1.480383277E0,-5.395517349E-1,-2.522176743E0
5.863708824E0,-1.702016950E0,-1.092571735E0,-3.025279045E0
5.868708824E0,-1.295396924E0,-6.091084480E-1,-3.773972988E0
5.873708824E0,-1.040154696E0,-8.337259293E-2,-4.638285637E0
5.878708824E0,-1.223477244E0,-2.886123657E-1,-2.838280201E0
5.883708824E0,-1.402359724E0,-6.426095963E-1,-1.031640530E0
5.888708824E0,-1.520359755E0,-9.112629890E-1,-1.077859879E0
5.893708824E0,-1.906431198E0,-1.003973246E0,-1.588725090E0
5.898708824E0,-2.357635975E0,-1.016292572E0,-3.427233696E-1
5.903708824E0,-2.597028494E0,-9.323656559E-1,1.041640282E0
5.908708824E0,-2.698968887E0,-7.715857029E-1,1.164469719E0
5.913708824E0,-2.819952488E0,-5.953779221E-1,8.829526901E-1
5.918708824E0,-2.791025162E0,-5.202422142E-1,6.381921768E-1
5.923708824E0,-2.478557587E0,-3.967633247E-1,-5.151271820E-2
5.928708824E0,-2.303692341E0,-2.944226265E-1,-7.585172653E-1
5.933708824E0,-2.242231369E0,-1.023244858E-1,-1.056706429E0
5.938708824E0,-1.955199122E0,1.211786270E-2,-9.385733604E-1
5.943708824E0,-1.716054678E0,1.677107811E-1,-8.967809677E-1
5.948708824E0,-1.307822108E0,3.892979622E-1,-9.888749123E-1
5.953708824E0,-6.514435410E-1,6.089096069E-1,-1.757555008E-1
5.958708824E0,-2.468428388E-2,8.220632076E-1,1.280404091E0
5.963708824E0,-7.402166724E-2,9.865758419E-1,1.180413246E0
5.968708824E0,-1.541993618E-1,1.150356293E0,5.990037918E-1
5.973708824E0,-3.093172312E-1,1.315084696E0,7.693986893E-1
5.978708824E0,-7.926164865E-1,1.313615799E0,8.813381195E-2
5.983708824E0,-1.194235682E0,1.254883528E0,-1.536212444E0
5.988708824E0,-1.264790773E0,1.012353659E0,-3.207953453E0
5.993708824E0,-9.160317183E-1,6.028873920E-1,-4.797920704E0
5.998708824E0,-3.191219568E-1,3.796732426E-1,-6.375837326E0
6.003708824E0,-1.630482078E-2,2.085571289E-1,-7.891190052E0
6.008708824E0,3.782727122E-1,9.050059319E-2,-8.754957199E0
6.013708824E0,9.616284370E-1,6.539821625E-3,-8.850736618E0
6.018708824E0,1.812337518E0,-3.333044052E-2,-7.514162064E0
6.023708824E0,3.210951328E0,-1.082468033E-2,-5.395544052E0
6.028708824E0,4.871254444E0,-5.402183533E-2,-2.351902008E0
6.033708824E0,5.991360188E0,2.588317394E-1,3.509244919E-1
6.038708824E0,6.402331829E0,9.056227207E-1,1.974602699E0
6.043708824E0,6.109751701E0,1.639480591E0,2.751338005E0
6.048708824E0,5.794765949E0,2.160392284E0,3.378983498E0
6.053708824E0,5.668495655E0,2.225978374E0,3.721761703E0
6.058708824E0,5.671294689E0,2.073702097E0,4.213278770E0
6.063708824E0,5.453072548E0,2.132179260E0,4.632313728E0
6.068708824E0,4.747375488E0,2.088932037E0,4.988060951E0
6.073708824E0,4.175834179E0,1.599242449E0,5.446882248E0
6.078708824E0,4.246604919E0,9.641581178E-1,5.158461571E0
6.083708824E0,3.803838015E0,6.137184501E-1,6.088598251E0
6.088708824E0,2.883246422E0,7.302927971E-2,6.951375961E0
6.093708824E0,2.071229935E0,-3.062068522E-1,4.541140556E0
6.098708824E0,1.248079777E0,-2.452856898E-1,2.991871834E0
6.103708824E0,7.083712816E-1,-2.141776085E-1,2.119037628E0
6.108708824E0,1.254984140E-1,-7.774256170E-2,1.069446564E0
6.113708824E0,-5.153790712E-1,4.746191204E-2,2.027101517E-1
6.118708824E0,-9.756650925E-1,-1.240843534E-1,3.520345688E-1
6.123708824E0,-1.459704876E0,-2.272301763E-1,2.945098877E-1
6.128708824E0,-1.677402973E0,-2.439757437E-1,-1.552610397E-1
6.133708824E0,-1.656719446E0,-3.139185905E-1,-1.713943481E-2
6.138708824E0,-1.499983191E0,-3.208603263E-1,3.186426163E-1
6.143708824E0,-1.341056824E0,-1.897953749E-1,5.015659332E-2
6.148708824E0,-1.283945918E0,-2.812137455E-2,-7.645187378E-1
6.153708824E0,-1.147073269E0,-3.803169355E-3,-1.176175117E0
6.158708824E0,-8.743617535E-1,5.091958866E-2,-7.252101898E-1
6.163708824E0,-4.706007242E-1,2.865971029E-1,-2.192373276E-1
6.168708824E0,1.178205013E-1,6.317707896E-1,1.557121277E-1
6.173708824E0,8.078074455E-1,9.696246982E-1,3.246622086E-1
6.178708824E0,1.346277237E0,1.242330909E0,6.567974091E-1
6.183708824E0,1.695530415E0,1.479208946E0,1.309493065E0
6.188708824E0,2.409538269E0,1.450568080E0,2.028441429E0
6.193708824E0,2.923538208E0,1.166553020E0,2.469265938E0
6.198708824E0,2.543432474E0,1.062817812E0,2.303010941E0
6.203708824E0,2.154771805E0,8.499233127E-1,1.829440117E0
6.208708824E0,1.932343721E0,5.595450401E-1,1.295475006E0
6.213708824E0,1.640193462E0,3.874455094E-1,6.158304214E-1
6.218708824E0,1.305360317E0,4.715437591E-1,1.223335266E-1
6.223708824E0,1.024883986E0,7.093973160E-1,-2.982549667E-1
6.228708824E0,6.954329014E-1,1.049919724E0,-8.448390961E-1
6.233708824E0,3.142433167E-1,1.416394472E0,-8.850021362E-1
6.238708824E0,2.449703217E-2,1.686764002E0,-5.887708664E-1
6.243708824E0,-2.234396935E-1,1.936734080E0,-5.505943298E-1
6.248708824E0,-1.713738441E-1,2.126630068E0,-6.893825531E-1
6.253708824E0,2.105016708E-1,2.142605305E0,-1.009913445E0
6.258708824E0,5.871157646E-1,2.005852938E0,-1.300590515E0
6.263708824E0,7.715356350E-1,1.630062580E0,-1.125172615E0
6.268708824E0,7.350723743E-1,1.195770502E0,-8.584976196E-1
6.273708824E0,4.906864166E-1,9.454119205E-1,-8.672533035E-1
6.278708824E0,2.799186707E-1,8.460603356E-1,-9.224548340E-1
6.283708824E0,1.010694504E-1,8.754281998E-1,-7.027635574E-1
6.288708824E0,-1.305186749E-1,9.341186285E-1,1.035718918E-1
6.293708824E0,-2.761580944E-1,1.083402991E0,-7.764816284E-3
6.298708824E0,-1.591532230E-1,1.107899547E0,2.130994797E-1
6.303708824E0,-5.315303802E-3,1.119910002E0,8.034982681E-1
6.308708824E0,6.646203995E-2,1.171761036E0,1.119575500E0
6.313708824E0,1.129715443E-1,1.190809965E0,1.365440369E0
6.318708824E0,3.401076794E-1,1.185433149E0,1.629235268E0
6.323708824E0,5.770351887E-1,1.171167016E0,1.407247543E0
6.328708824E0,6.651535034E-1,8.118036985E-1,-2.513117313E0
6.333708824E0,6.969690323E-1,9.659663439E-1,-5.675868988E-1
6.338708824E0,3.546578884E-1,1.360191703E0,1.387889862E0
6.343708824E0,4.099214077E-1,1.425247073E0,-4.536457062E-1
6.348708824E0,1.457016468E-1,1.286906362E0,-2.639617920E-1
6.353708824E0,1.093394756E-1,1.027951956E0,5.776500702E-2
6.358708824E0,1.927688122E-1,9.310271740E-1,-1.157043457E0
6.363708824E0,3.353936672E-1,9.261989594E-1,-1.377390862E0
6.368708824E0,4.772558212E-1,1.056205273E0,-1.602258682E0
6.373708824E0,3.704564571E-1,1.271403551E0,-2.088266850E0
6.378708824E0,1.591789722E-1,1.507802963E0,-1.938660145E0
6.383708824E0,2.736859322E-1,1.561530352E0,-1.985881329E0
6.388708824E0,4.787309170E-1,1.561896324E0,-1.414904594E0
6.393708824E0,6.301752329E-1,1.534214973E0,-8.516626358E-1
6.398708824E0,7.177015543E-1,1.612006187E0,-4.844770432E-1
6.403708824E0,8.364244699E-1,1.549185753E0,8.128767014E-1
6.408708824E0,9.704807997E-1,1.387058735E0,2.293365479E0
6.413708824E0,1.158020020E0,1.148581505E0,2.858754158E0
6.418708824E0,1.148029447E0,9.413514137E-1,3.599163055E0
6.423708824E0,1.123328567E0,8.054401875E-1,4.095910072E0
6.428708824E0,1.089568973E0,7.799673080E-1,4.062353134E0
6.433708824E0,8.990892172E-1,8.123323917E-1,3.672522545E0
6.438708824E0,5.832667351E-1,1.024803877E0,2.926934242E0
6.443708824E0,5.337136984E-1,1.254432678E0,2.201041222E0
6.448708824E0,7.419582605E-1,1.455678701E0,1.452499390E0
6.453708824E0,1.097803116E0,1.522817850E0,6.533470154E-1
6.458708824E0,1.527899384E0,1.402615547E0,-1.807279587E-1
6.463708824E0,1.670137882E0,1.107195377E0,-8.830776215E-1
6.468708824E0,1.445226073E0,6.787915230E-1,-1.338258266E0
6.473708824E0,1.364950418E0,1.198024750E-1,-1.291223049E0
6.478708824E0,1.848381400E0,-5.744376183E-1,-5.517568588E-1
6.483708824E0,2.599286556E0,-1.274986029E0,7.430391312E-1
6.488708824E0,2.990692139E0,-1.716434002E0,1.850395203E0
6.493708824E0,3.039896011E0,-1.746400356E0,2.665137291E0
6.498708824E0,2.815381527E0,-1.604769707E0,3.007260323E0
6.503708824E0,2.482778788E0,-1.459025383E0,3.194724083E0
6.508708824E0,2.201311111E0,-1.324314117E0,3.161408424E0
6.513708824E0,2.128502846E0,-1.146277189E0,2.833254814E0
6.518708824E0,2.479263306E0,-1.114701748E0,2.274434090E0
6.523708824E0,2.556022644E0,-1.099532127E0,1.748603821E0
6.528708824E0,2.289716244E0,-1.216198921E0,1.492343903E0
6.533708824E0,2.148827314E0,-1.530596495E0,1.164201736E0
6.538708824E0,2.219525576E0,-1.788805008E0,5.634775162E-1
6.543708824E0,2.346792221E0,-1.963624716E0,-4.493732452E-1
6.548708824E0,2.640225410E0,-2.032914639E0,-1.538122654E0
6.553708824E0,3.065859318E0,-2.033245564E0,-2.212608337E0
6.558708824E0,3.515490532E0,-1.968075037E0,-2.530344486E0
6.563708824E0,3.675374031E0,-1.889791727E0,-2.519726753E0
6.568708824E0,3.466347694E0,-1.805837631E0,-2.407870293E0
6.573708824E0,2.967914820E0,-1.627830982E0,-2.223498821E0
6.578708824E0,2.402969122E0,-1.388690233E0,-2.031770706E0
6.583708824E0,1.928285718E0,-1.106362343E0,-1.840056419E0
6.588708824E0,1.563563824E0,-9.057660103E-1,-1.721859455E0
6.593708824E0,1.097948790E0,-8.176174164E-1,-1.573849678E0
6.598708824E0,5.243531466E-1,-1.011870861E0,-1.879117966E0
6.603708824E0,-3.543615043E-1,-1.104141712E0,-2.192874908E0
6.608708824E0,-3.101953268E0,-9.402437210E-1,6.864385605E-1
6.613708824E0,-7.125435829E0,4.184336662E-1,3.843706131E0
6.618708824E0,-9.106554031E0,1.729830742E0,2.578425407E0
6.623708824E0,-9.718749046E0,3.328969955E0,1.640956879E0
6.628708824E0,-8.813522339E0,4.842988014E0,2.159550667E0
6.633708824E0,-6.922027111E0,5.334751606E0,2.634903908E0
6.638708824E0,-4.335633755E0,4.793341637E0,2.959805489E0
6.643708824E0,-7.794873714E-1,3.421739578E0,4.049670696E0
6.648708824E0,1.931202531E0,1.899168015E0,1.945863724E0
6.653708824E0,3.966440916E0,8.171982765E-1,1.844992161E0
6.658708824E0,4.958725452E0,-3.270926476E-1,3.082697868E0
6.663708824E0,5.229023457E0,-1.195008278E0,3.625012875E0
6.668708824E0,5.063523769E0,-1.645884514E0,3.404640675E0
6.673708824E0,4.479638100E0,-1.644615173E0,3.519968510E0
6.678708824E0,3.703070164E0,-1.325328827E0,4.265948772E0
6.683708824E0,2.995773077E0,-9.777312279E-1,5.369878769E0
6.688708824E0,2.503809929E0,-7.234120369E-1,6.644371510E0
6.693708824E0,2.800299644E0,-7.829365730E-1,7.966789722E0
6.698708824E0,3.755307913E0,-1.187614441E0,9.030069351E0
6.703708824E0,4.816697121E0,-1.727038383E0,9.701108932E0
6.708708824E0,5.567703724E0,-2.015137672E0,9.790988922E0
6.713708824E0,5.439438343E0,-1.976337910E0,9.336320877E0
6.718708824E0,4.767970085E0,-1.737173557E0,8.415025711E0
6.723708824E0,3.976901531E0,-1.476501465E0,7.593992710E0
6.728708824E0,3.659327745E0,-1.445616245E0,6.983171463E0
6.733708824E0,3.526089668E0,-1.721813202E0,6.562090397E0
6.738708824E0,3.699740887E0,-2.178519726E0,6.367212772E0
6.743708824E0,4.180356026E0,-2.786946774E0,6.533094406E0
6.748708824E0,4.763725281E0,-3.564918995E0,6.878043652E0
6.753708824E0,4.918225765E0,-4.292280674E0,6.859632492E0
6.758708824E0,4.802963734E0,-4.973615646E0,6.357071400E0
6.763708824E0,4.417922497E0,-5.513144493E0,5.435023308E0
6.768708824E0,3.678530931E0,-5.776471138E0,4.225524426E0
6.773708824E0,2.681500912E0,-5.806005478E0,2.974182606E0
6.778708824E0,1.898715973E0,-5.696102142E0,1.878797531E0
6.783708824E0,1.425512910E0,-5.523074627E0,1.026201725E0
6.788708824E0,1.197869539E0,-5.376522064E0,1.654500961E-1
6.793708824E0,1.083229780E0,-5.230636120E0,-7.737998962E-1
6.798708824E0,8.302135468E-1,-4.975155830E0,-1.631124854E0
6.803708824E0,2.886872292E-1,-4.623534203E0,-2.509423018E0
6.808708824E0,-6.113829613E-1,-4.335040092E0,-3.497051001E0
6.813708824E0,-1.682155609E0,-4.202166080E0,-4.718310356E0
6.818708824E0,-2.541524410E0,-4.120633602E0,-5.796909332E0
6.823708824E0,-3.112968445E0,-4.041918755E0,-6.551684380E0
6.828708824E0,-3.434820175E0,-3.989304543E0,-7.075259209E0
6.833708824E0,-3.564434528E0,-3.842322826E0,-7.213070393E0
6.838708824E0,-3.759428978E0,-3.651532173E0,-7.239210606E0
6.843708824E0,-3.882701874E0,-3.450425625E0,-6.980248928E0
6.848708824E0,-3.905416012E0,-3.268983841E0,-6.549196243E0
6.853708824E0,-3.730901718E0,-3.193344593E0,-5.971468925E0
6.858708824E0,-3.501417637E0,-3.220958233E0,-5.248040676E0
6.863708824E0,-3.034202099E0,-3.340892792E0,-4.505426884E0
6.868708824E0,-2.213855743E0,-3.535482883E0,-3.803417683E0
6.873708824E0,-1.537478924E0,-3.772339821E0,-3.049043894E0
6.878708824E0,-8.248448372E-1,-3.709999084E0,-2.120377302E0
6.883708824E0,-3.904256821E-1,-3.494287968E0,-1.425554514E0
6.888708824E0,-5.097308159E-1,-3.113588810E0,-1.147018194E0
6.893708824E0,-1.019952774E0,-2.724701881E0,-1.119585156E0
6.898708824E0,-1.714025497E0,-2.294505119E0,-1.397624969E0
6.903708824E0,-2.165874958E0,-1.929724693E0,-1.949494123E0
6.908708824E0,-2.239199162E0,-1.807168484E0,-2.611137867E0
6.913708824E0,-1.914845943E0,-1.569767952E0,-2.986880302E0
6.918708824E0,-1.419080734E0,-1.024594784E0,-2.251519442E0
6.923708824E0,-1.218976498E0,-4.352445602E-1,-1.505268693E0
6.928708824E0,-1.204245090E0,9.202051163E-2,-1.318670154E0
6.933708824E0,-1.117438793E0,5.954174995E-1,-9.811587930E-1
6.938708824E0,-6.034798622E-1,9.423346519E-1,-8.012548089E-1
6.943708824E0,4.971075058E-2,1.116761684E0,-5.247807503E-2
6.948708824E0,6.458168030E-1,1.173160076E0,4.571301341E-1
6.953708824E0,1.279951096E0,1.067567825E0,1.089426279E0
6.958708824E0,2.298356533E0,8.524460793E-1,1.257507324E0
6.963708824E0,2.997040749E0,6.186718941E-1,1.349828601E0
6.968708824E0,3.599481106E0,2.886013985E-1,1.488816500E0
6.973708824E0,4.114406586E0,-1.962714195E-1,1.095714569E0
6.978708824E0,4.653525352E0,-6.577987671E-1,7.165716887E-1
6.983708824E0,5.277210236E0,-1.081309319E0,1.118362427E0
6.988708824E0,5.920951366E0,-1.245102406E0,1.094782591E0
6.993708824E0,6.192525864E0,-1.242162228E0,8.065400124E-1
6.998708824E0,6.091022491E0,-1.288331032E0,4.919108152E-1
7.003708824E0,5.558737755E0,-1.388420105E0,-4.321455956E-2
7.008708824E0,5.011155128E0,-1.495011806E0,-5.729401112E-1
7.013708824E0,4.560048103E0,-1.662406445E0,-1.113224030E0
7.018708824E0,4.211856842E0,-1.861786842E0,-1.686186552E0
7.023708824E0,3.789493322E0,-1.995414734E0,-2.023149014E0
7.028708824E0,3.263263702E0,-2.044656515E0,-2.376814842E0
7.033708824E0,3.044788361E0,-2.088780880E0,-3.082060814E0
7.038708824E0,2.604966640E0,-1.995019913E0,-3.332251310E0
7.043708824E0,1.741970539E0,-2.081743717E0,-3.513425589E0
7.048708824E0,1.333512306E0,-2.073085308E0,-3.382930517E0
7.053708824E0,1.119005680E0,-2.140433788E0,-2.701363564E0
7.058708824E0,1.081009388E0,-2.508175373E0,-2.107774973E0
7.063708824E0,1.277260303E0,-3.012855291E0,-2.096584082E0
7.068708824E0,1.373560429E0,-3.470912933E0,-2.517653465E0
7.073708824E0,1.272965908E0,-3.877415180E0,-2.814414263E0
7.078708824E0,1.170375347E0,-4.204638481E0,-3.009624958E0
7.083708824E0,2.840247154E-1,-4.507275581E0,-3.079438448E0
7.088708824E0,-9.800491333E-1,-4.725175381E0,-3.240410089E0
7.093708824E0,-1.747663975E0,-4.448904991E0,-3.368201971E0
7.098708824E0,-2.049882412E0,-4.011095524E0,-2.982029438E0
7.103708824E0,-2.035674572E0,-3.681042194E0,-2.982893705E0
7.108708824E0,-1.928396225E0,-3.395491600E0,-2.888727427E0
7.113708824E0,-2.247085571E0,-3.048869133E0,-2.247404337E0
7.118708824E0,-2.538599968E0,-2.330044270E0,-1.473564625E0
7.123708824E0,-2.611425400E0,-1.406029940E0,-7.021889687E-1
7.128708824E0,-2.183132172E0,-4.753704071E-1,1.187515259E-2
7.133708824E0,-1.673963547E0,3.299279213E-1,5.469155312E-2
7.138708824E0,-1.291343689E0,1.067444801E0,-6.610279083E-1
7.143708824E0,-1.024652004E0,1.792326450E0,-1.201508284E0
7.148708824E0,-7.388043404E-1,2.582421780E0,-1.281442165E0
7.153708824E0,-5.425667763E-1,3.450376034E0,-1.346158981E0
7.158708824E0,1.341381073E-1,4.338595867E0,-1.800234556E0
7.163708824E0,1.295186043E0,5.047743320E0,-2.847796917E0
7.168708824E0,2.491510868E0,5.483868599E0,-3.573217630E0
7.173708824E0,3.367434502E0,5.401667595E0,-3.715817213E0
7.178708824E0,3.574633121E0,4.991453171E0,-3.754688978E0
7.183708824E0,3.639877558E0,4.352747917E0,-4.558215141E0
7.188708824E0,4.015755653E0,3.723625183E0,-5.287284851E0
7.193708824E0,4.448320389E0,3.236214638E0,-5.488676071E0
7.198708824E0,4.511530399E0,2.469771862E0,-5.314646721E0
7.203708824E0,4.272727966E0,2.055057049E0,-5.037005901E0
7.208708824E0,3.742390156E0,1.868584633E0,-5.267265797E0
7.213708824E0,3.046396732E0,1.832394123E0,-5.827819824E0
7.218708824E0,1.863657951E0,1.150830269E0,-5.137947083E0
7.223708824E0,9.523911476E-1,-5.305480957E-2,-3.373144150E0
7.228708824E0,6.734142303E-1,-1.505620718E0,-1.165938377E0
7.233708824E0,6.019945145E-1,-1.590569258E0,-1.301784754E0
7.238708824E0,-3.754382133E-1,-5.865225792E-1,-2.215803385E0
7.243708824E0,-1.093977451E0,1.161525726E0,-2.359367132E0
7.248708824E0,-4.409947395E-1,3.024742126E0,-2.976030350E0
7.253708824E0,9.509906769E-1,5.026115417E0,-4.060441494E0
7.258708824E0,2.053322792E0,6.708914757E0,-3.994017601E0
7.263708824E0,1.938119888E0,6.984020233E0,-2.469142675E0
7.268708824E0,1.557460785E0,6.644527435E0,-1.042049170E0
7.273708824E0,1.390779495E0,5.621447086E0,3.903865814E-3
7.278708824E0,1.291475296E0,4.036499023E0,1.192286730E0
7.283708824E0,1.179552078E0,2.465637207E0,2.440757036E0
7.288708824E0,9.389414787E-1,1.177999973E0,3.060264111E0
7.293708824E0,9.437694550E-1,-3.273200989E-2,2.999830723E0
7.298708824E0,8.136510849E-1,-1.107234001E0,2.621415854E0
7.303708824E0,3.394088745E-1,-2.047661304E0,2.238161802E0
7.308708824E0,-7.149124146E-2,-3.114549637E0,2.597694397E0
7.313708824E0,-1.074191093E0,-3.548778772E0,2.624733686E0
7.318708824E0,-2.247067451E0,-3.307744026E0,1.568046689E0
7.323708824E0,-1.464921951E0,-3.918140173E0,2.495691299E0
7.328708824E0,6.631031036E-1,-5.384605885E0,7.002717018E0
7.333708824E0,4.201154709E-1,-6.168998718E0,8.915765762E0
7.338708824E0,-2.603245735E0,-4.752106667E0,5.194468498E0
7.343708824E0,-4.698373795E0,-2.816568851E0,1.937535882E0
7.348708824E0,-4.582035065E0,-1.816515446E0,-2.056834698E-1
7.353708824E0,-3.115682602E0,-1.641162872E0,-1.335844398E0
7.358708824E0,-2.526701927E0,-1.454803228E0,-6.621080637E-1
7.363708824E0,-2.216458321E0,-9.338116646E-1,-1.567316055E-2
7.368708824E0,-1.636743546E0,-4.426510334E-1,1.676608801E0
7.373708824E0,-1.220755577E0,5.308375359E-1,3.166749477E0
7.378708824E0,-9.066505432E-1,1.436457396E0,4.266909599E0
7.383708824E0,-8.248243332E-1,2.030092478E0,5.283401012E0
7.388708824E0,-6.089296341E-1,2.284152746E0,6.241761684E0
7.393708824E0,-6.089639664E-1,1.950006485E0,7.052751064E0
7.398708824E0,-8.543491364E-1,1.109495401E0,7.270662308E0
7.403708824E0,-1.208919525E0,-5.799770355E-2,6.923661709E0
7.408708824E0,-1.422705650E0,-1.399952650E0,6.215866566E0
7.413708824E0,-1.394713402E0,-2.638259888E0,5.181055069E0
7.418708824E0,-1.406725883E0,-3.600690365E0,4.305033684E0
7.423708824E0,-1.173508644E0,-4.308413029E0,3.717085361E0
7.428708824E0,-1.140059471E0,-4.631678581E0,3.466407537E0
7.433708824E0,-1.121196747E0,-5.155269623E0,3.192995548E0
7.438708824E0,-1.622525215E0,-5.956847191E0,2.586983204E0
7.443708824E0,-2.501546860E0,-6.819022655E0,1.976340890E0
7.448708824E0,-2.239072800E0,-8.285006523E0,1.680177212E0
7.453708824E0,-9.146156311E-1,-8.963730812E0,2.073456049E0
7.458708824E0,-7.814016342E-1,-8.553400040E0,2.556106091E0
7.463708824E0,-1.791148186E0,-7.565793037E0,1.491222620E0
7.468708824E0,-2.820651054E0,-5.897717476E0,1.346162081E0
7.473708824E0,-2.840887070E0,-4.288443565E0,1.932976961E0
7.478708824E0,-1.533187866E0,-2.564005613E0,2.287933826E0
7.483708824E0,2.461090088E-1,-6.407146454E-1,1.862112761E0
7.488708824E0,1.445305347E0,9.346954823E-1,1.108522892E0
7.493708824E0,1.828897476E0,2.243179798E0,3.352615833E-1
7.498708824E0,2.364085674E0,3.162827730E0,-9.666323662E-1
7.503708824E0,3.218415260E0,3.960154295E0,-2.301556110E0
7.508708824E0,4.038496494E0,4.434572220E0,-4.267454624E0
7.513708824E0,4.907296658E0,4.302952766E0,-6.538597107E0
7.518708824E0,5.229282856E0,3.845908403E0,-8.142441750E0
7.523708824E0,4.729220390E0,2.987930775E0,-8.789430618E0
7.528708824E0,4.049686432E0,1.721661806E0,-8.581449509E0
7.533708824E0,3.726324558E0,3.984851837E-1,-7.895703793E0
7.538708824E0,3.854086399E0,-6.231193542E-1,-6.714588165E0
7.543708824E0,4.017316818E0,-1.279495358E0,-5.024394035E0
7.548708824E0,4.238197327E0,-1.954420328E0,-3.023233891E0
7.553708824E0,4.676606655E0,-3.059165001E0,-1.287641048E0
7.558708824E0,5.223449707E0,-4.375418663E0,9.125232697E-3
7.563708824E0,5.706120491E0,-5.583869934E0,1.249197245E0
7.568708824E0,5.970469475E0,-6.069548130E0,2.690634012E0
7.573708824E0,6.108561516E0,-6.158138275E0,4.085752487E0
7.578708824E0,6.489243031E0,-5.993131161E0,4.142402649E0
7.583708824E0,6.930850029E0,-4.993669510E0,2.876589298E0
7.588708824E0,5.786468506E0,-3.506350517E0,-1.242835522E-1
7.593708824E0,3.266850948E0,-8.291176558E-1,-2.053683996E0
7.598708824E0,1.114278316E0,1.781440735E0,-2.765894413E0
7.603708824E0,-2.399063110E-1,4.207823753E0,-3.702644110E0
7.608708824E0,3.345527649E-1,5.020226479E0,-4.531692505E0
7.613708824E0,2.335568905E0,4.170331955E0,-5.634331226E0
7.618708824E0,4.348743916E0,3.007560492E0,-5.909052372E0
7.623708824E0,5.171411991E0,1.993167639E0,-4.802657127E0
7.628708824E0,4.355499268E0,1.221569300E0,-3.049590111E0
7.633708824E0,2.552000523E0,8.833153248E-1,-1.661916018E0
7.638708824E0,1.109384537E0,2.654147148E-1,-1.807233095E0
7.643708824E0,-5.443029404E-1,-8.533694744E-1,-2.020715475E0
7.648708824E0,-2.643981934E0,-1.059279084E0,-1.671213150E0
7.653708824E0,-3.078932762E0,-8.019375801E-1,-1.919993639E0
7.658708824E0,-3.052065849E0,-7.542517185E-1,-2.193866730E0
7.663708824E0,-3.204626083E0,-1.002130985E0,-2.548406124E0
7.668708824E0,-3.385319710E0,-1.470477581E0,-3.058693886E0
7.673708824E0,-3.412056923E0,-1.751238942E0,-3.749806881E0
7.678708824E0,-3.397926331E0,-2.038366795E0,-4.642624378E0
7.683708824E0,-3.884568214E0,-2.294035673E0,-4.565970898E0
7.688708824E0,-4.654031754E0,-2.078725338E0,-2.814818859E0
7.693708824E0,-5.281958580E0,-1.514238358E0,-7.167500257E-1
7.698708824E0,-5.506401062E0,-1.011025548E0,6.176850796E-1
7.703708824E0,-5.515749931E0,-9.567484856E-1,1.984659672E0
7.708708824E0,-6.330760002E0,-4.469506741E-1,3.396547794E0
7.713708824E0,-7.153426170E0,-2.585926056E-1,4.826244354E0
7.718708824E0,-7.321450233E0,-3.291821480E-1,5.964018345E0
7.723708824E0,-6.589491844E0,-1.273252249E0,6.437104225E0
7.728708824E0,-5.979325294E0,-2.244767666E0,5.740007877E0
7.733708824E0,-5.536578178E0,-2.184011936E0,4.369937897E0
7.738708824E0,-4.606502533E0,-8.885161877E-1,3.266947746E0
7.743708824E0,-3.485321045E0,1.766850948E-1,3.027660370E0
7.748708824E0,-2.462878227E0,1.070160151E0,3.271287680E0
7.753708824E0,-1.553318024E0,1.792925358E0,4.443924427E0
7.758708824E0,-6.053752899E-1,2.165032148E0,4.485238075E0
7.763708824E0,-2.168369293E-1,2.204861403E0,2.631269932E0
7.768708824E0,-1.588373184E-1,1.988918304E0,-3.970208764E-1
7.773708824E0,-2.518701553E-1,1.826014996E0,-3.357399702E0
7.778708824E0,1.836919785E-1,1.874510527E0,-5.438860416E0
7.783708824E0,9.173316956E-1,2.535527229E0,-6.122012138E0
7.788708824E0,1.506506920E0,2.628966331E0,-6.401976109E0
7.793708824E0,1.709516048E0,2.033457041E0,-6.487203598E0
7.798708824E0,1.778195381E0,1.203852654E0,-6.641578674E0
7.803708824E0,1.931500912E0,6.279356480E-1,-6.492861271E0
7.808708824E0,2.285251617E0,7.035071850E-1,-5.478483677E0
7.813708824E0,2.427643776E0,1.281551123E0,-4.183371067E0
7.818708824E0,2.284492970E0,1.569909573E0,-2.675266504E0
7.823708824E0,2.186399460E0,1.734185457E0,-1.055523992E0
7.828708824E0,2.047774315E0,1.622265577E0,4.163843393E-1
7.833708824E0,1.945287228E0,1.248377800E0,1.436075449E0
7.838708824E0,1.626811981E0,9.172217846E-1,2.061824799E0
7.843708824E0,6.041879654E-1,3.551764488E-1,2.414246082E0
7.848708824E0,-5.036630630E-1,4.326448441E-1,2.832960606E0
7.853708824E0,-1.930135727E0,7.891097069E-1,3.385882854E0
7.858708824E0,-3.793904305E0,1.375241280E-1,3.846935272E0
7.863708824E0,-5.147545815E0,-1.817948341E0,4.550467014E0
7.868708824E0,-4.227220535E0,-2.881511688E0,4.938116074E0
7.873708824E0,-3.028412819E0,-3.052175522E0,4.203239918E0
7.878708824E0,-2.478612900E0,-2.616191626E0,2.673912287E0
7.883708824E0,-1.668320656E0,-2.504143715E0,1.310486436E0
7.888708824E0,1.406135559E-1,-2.098124027E0,1.406452656E-1
7.893708824E0,2.003790379E0,-1.634629726E0,-4.266309738E-1
7.898708824E0,3.190478325E0,-9.999513626E-1,-1.374628305E0
7.903708824E0,4.176212788E0,-6.223821640E-2,-1.866051674E0
7.908708824E0,4.929362774E0,1.188489914E0,-1.672483444E0
7.913708824E0,5.789014816E0,2.071827888E0,-3.061287880E0
7.918708824E0,6.027154446E0,3.221035004E0,-3.285801411E0
7.923708824E0,5.122531891E0,3.486948967E0,-4.409775257E0
7.928708824E0,3.199459076E0,3.956832409E0,-5.228873730E0
7.933708824E0,1.397260189E0,3.798228264E0,-4.625236511E0
7.938708824E0,3.747272491E-2,3.146705627E0,-3.604622602E0
7.943708824E0,-1.503449917E0,2.137853622E0,-2.469007730E0
7.948708824E0,-3.745771408E0,1.082884789E0,-1.903150797E0
7.953708824E0,-5.715547562E0,3.717708588E-2,-1.675546408E0
7.958708824E0,-7.686896801E0,-5.295290947E-1,-8.505947590E-1
7.963708824E0,-9.735843658E0,-3.151154518E-1,2.360347509E0
7.968708824E0,-1.205019569E1,2.848291397E-2,6.315755844E0
7.973708824E0,-1.366934109E1,3.049755096E-1,8.679306030E0
7.978708824E0,-1.327729130E1,1.424169540E-1,9.746602058E0
7.983708824E0,-1.162662411E1,1.048426628E-1,1.005238056E1
7.988708824E0,-9.220294952E0,-3.149843216E-2,9.454387665E0
7.993708824E0,-6.519370556E0,-4.327964783E-2,7.821868420E0
7.998708824E0,-4.342483521E0,2.057623863E-1,5.574105263E0
8.003708824E0,-1.747130871E0,4.172568321E-1,3.171411514E0
8.008708824E0,4.391431808E-1,4.513568878E-1,1.706827760E0
8.013708824E0,1.726430416E0,2.594838142E-1,1.387062073E-1
8.018708824E0,2.484291792E0,-5.866336823E-2,-1.336266041E0
8.023708824E0,3.099398613E0,-6.545662880E-1,-2.272082090E0
8.028708824E0,3.209127903E0,-1.403152943E0,-2.964305878E0
8.033708824E0,2.992650509E0,-2.218668938E0,-2.919016361E0
8.038708824E0,2.576007128E0,-2.608599663E0,-2.274975538E0
8.043708824E0,2.290911674E0,-2.701694965E0,-1.705619812E0
8.048708824E0,1.836139917E0,-2.795195103E0,-4.953348637E-1
8.053708824E0,1.738150358E0,-2.399610996E0,1.670229435E-1
8.058708824E0,1.994675159E0,-2.224460602E0,7.538361549E-1
8.063708824E0,2.552689075E0,-2.098901749E0,1.323631763E0
8.068708824E0,3.048458576E0,-1.753379345E0,1.862715840E0
8.073708824E0,3.000868320E0,-1.376416206E0,1.935082316E0
8.078708824E0,2.794390917E0,-1.119224072E0,1.582916260E0
8.083708824E0,2.897974491E0,-8.693308830E-1,1.021804810E0
8.088708824E0,3.493750095E0,-6.129269600E-1,3.559808731E-1
8.093708824E0,4.110198498E0,-2.212247849E-1,-8.332252502E-2
8.098708824E0,4.553174496E0,2.512226105E-1,-8.642435074E-3
8.103708824E0,4.696146011E0,9.505939484E-1,5.904769897E-1
8.108708824E0,4.594655514E0,1.459809303E0,1.343740940E0
8.113708824E0,4.278466702E0,1.514168739E0,2.039334774E0
8.118708824E0,3.860498428E0,1.428472042E0,2.414288521E0
8.123708824E0,2.362716675E0,-1.566886902E-3,2.726263046E0
8.128708824E0,4.074773788E-1,-8.728837967E-1,2.753372192E0
8.133708824E0,-3.897709846E-1,-3.887181282E-1,2.590032101E0
8.138708824E0,3.142919540E-1,-8.363771439E-2,2.316857815E0
8.143708824E0,2.614248753E0,-1.155669689E0,1.651505113E0
8.148708824E0,2.836947441E0,-1.026349545E0,1.352125883E0
8.153708824E0,1.721883297E0,-4.422931671E-1,1.770396471E0
8.158708824E0,6.592907906E-1,-7.737827301E-2,2.356772900E0
8.163708824E0,3.952388763E-1,-1.809225082E-1,2.154949188E0
8.168708824E0,8.943042755E-1,-2.203774452E-1,1.522228241E0
8.173708824E0,1.597226858E0,-3.247709274E-1,1.574066520E0
8.178708824E0,3.033562183E0,-5.467767715E-1,9.787003994E-1
8.183708824E0,3.884122610E0,-7.671370506E-1,3.067500591E-1
8.188708824E0,4.286897182E0,-1.183540344E0,-2.303977013E-1
8.193708824E0,4.561436176E0,-1.645493507E0,-6.269803047E-1
8.198708824E0,4.343045235E0,-1.816408634E0,-1.230570078E0
8.203708824E0,3.973131180E0,-1.929472446E0,-2.052625656E0
8.208708824E0,3.930146694E0,-1.617338657E0,-1.926803589E0
8.213708824E0,4.038772583E0,-1.197728157E0,-1.487788677E0
8.218708824E0,4.472141743E0,-8.514194489E-1,-1.281550646E0
8.223708824E0,4.403745651E0,-7.150416374E-1,-8.312892914E-1
8.228708824E0,3.883475780E0,-7.683687210E-1,-5.299949646E-2
8.233708824E0,3.249518871E0,-8.645410538E-1,9.609651566E-1
8.238708824E0,3.097312927E0,-9.081382751E-1,2.228558064E0
8.243708824E0,2.406572342E0,-1.262991905E0,2.457996607E0
8.248708824E0,9.213972092E-1,-2.163544178E0,2.075188398E0
8.253708824E0,-6.388573647E-1,-3.322796345E0,1.631320238E0
8.258708824E0,-1.828633308E0,-4.297298908E0,1.252410650E0
8.263708824E0,-2.709887028E0,-5.058234215E0,6.060829163E-1
8.268708824E0,-3.462022781E0,-5.529593468E0,-2.994661331E-1
8.273708824E0,-4.045658588E0,-5.951393127E0,-1.311311007E0
8.278708824E0,-4.153300762E0,-6.193642616E0,-2.154705048E0
8.283708824E0,-3.942432404E0,-6.153551102E0,-2.832740784E0
8.288708824E0,-3.893815041E0,-6.055970669E0,-3.460514545E0
8.293708824E0,-3.652211666E0,-5.629586220E0,-4.015496731E0
8.298708824E0,-4.334014416E0,-5.109902382E0,-2.650561333E0
8.303708824E0,-6.427993298E0,-4.587327957E0,-3.641123772E-1
8.308708824E0,-7.871487617E0,-4.249395370E0,6.496324539E-1
8.313708824E0,-6.496596813E0,-3.976736069E0,5.134303570E-1
8.318708824E0,-2.784425735E0,-3.178771496E0,1.993593216E0
8.323708824E0,4.009582996E-1,-1.370494366E0,4.396256447E0
8.328708824E0,1.631485939E0,8.395290375E-1,5.648150444E0
8.333708824E0,1.675931692E0,3.098541260E0,5.514738083E0
8.338708824E0,1.845287919E0,4.554382324E0,3.607484579E0
8.343708824E0,2.727778435E0,5.223290443E0,8.931176662E-1
8.348708824E0,4.165456772E0,5.233618736E0,-2.475266218E0
8.353708824E0,5.000950813E0,4.818205833E0,-5.769819260E0
8.358708824E0,5.312502384E0,4.816222191E0,-7.249017239E0
8.363708824E0,4.100026608E0,4.003760338E0,-7.413515568E0
8.368708824E0,3.053665161E0,2.711740494E0,-7.038841248E0
8.373708824E0,3.280328274E0,2.307510376E0,-4.991406918E0
8.378708824E0,2.842869759E0,1.699435234E0,-3.503450155E0
8.383708824E0,2.329938889E0,7.223138809E-1,-2.572441578E0
8.388708824E0,1.941002846E0,3.721265793E-1,-1.410285234E0
8.393708824E0,2.053972721E0,2.249975204E-1,-2.563874722E-1
8.398708824E0,2.158946037E0,2.387237549E-1,1.294896364E0
8.403708824E0,2.642083883E0,5.850725174E-1,3.147639990E0
8.408708824E0,3.032503605E0,8.427991867E-1,4.194350719E0
8.413708824E0,2.915466785E0,1.524884224E0,4.218481064E0
8.418708824E0,2.714130163E0,2.684366226E0,3.445152044E0
8.423708824E0,2.904814720E0,3.573266983E0,2.214274645E0
8.428708824E0,2.975786209E0,4.404761314E0,1.624574900E0
8.433708824E0,2.640164137E0,5.962140083E0,1.882441044E-1
8.438708824E0,2.652525425E0,7.450553894E0,-1.951257706E0
8.443708824E0,3.694863796E0,7.866905212E0,-3.403681755E0
8.448708824E0,4.576831341E0,7.175216675E0,-4.207953453E0
8.453708824E0,5.009477615E0,6.187224388E0,-4.115537167E0
8.458708824E0,4.486041546E0,5.040378571E0,-3.683724403E0
8.463708824E0,4.064805984E0,3.992643356E0,-2.560943127E0
8.468708824E0,3.492883205E0,3.076366425E0,-1.896473885E0
8.473708824E0,3.140570641E0,1.955622673E0,-1.467844009E0
8.478708824E0,3.605425119E0,1.139786720E0,-1.277135849E0
8.483708824E0,3.971718788E0,9.384288788E-1,-1.280496120E0
8.488708824E0,3.820399284E0,5.578126907E-1,-1.791799068E0
8.493708824E0,4.028107643E0,2.715530396E-1,-2.593776226E0
8.498708824E0,3.870597839E0,-1.220779419E-1,-2.998096943E0
8.503708824E0,3.688634872E0,-5.323271751E-1,-2.734192848E0
8.508708824E0,3.212109566E0,-1.235682487E0,-2.243181229E0
8.513708824E0,2.698719263E0,-1.449134827E0,-1.527457237E0
8.518708824E0,2.448342800E0,-1.122900963E0,-4.887995720E-1
8.523708824E0,1.816789031E0,-8.570685387E-1,2.482047081E-1
8.528708824E0,7.155416012E-1,-3.711771965E-1,7.371215820E-1
8.533708824E0,-3.279943466E-1,5.956411362E-1,1.583313942E0
8.538708824E0,-8.115916252E-1,1.564041138E0,2.426992893E0
8.543708824E0,-1.370464802E0,2.102594376E0,2.457767487E0
8.548708824E0,-2.524693251E0,2.120811462E0,1.209439278E0
8.553708824E0,-3.022974253E0,1.928908348E0,6.212377548E-2
8.558708824E0,-3.332548618E0,1.698435783E0,-6.219906807E-1
8.563708824E0,-3.722606421E0,1.828836441E0,-6.118497849E-1
8.568708824E0,-3.441089392E0,1.500518799E0,2.356429100E-1
8.573708824E0,-4.116150856E0,2.570457458E0,2.049703836E0
8.578708824E0,-4.222835541E0,3.335847855E0,2.838723421E0
8.583708824E0,-4.852076054E0,3.682785988E0,2.805818081E0
8.588708824E0,-6.018263817E0,3.456116676E0,1.777010202E0
8.593708824E0,-6.514415741E0,2.642458916E0,5.503792763E-1
8.598708824E0,-6.202242374E0,2.015251160E0,5.520880222E-1
8.603708824E0,-5.345414162E0,1.510136604E0,1.294646978E0
8.608708824E0,-4.419758797E0,1.096755981E0,1.815443993E0
8.613708824E0,-3.809958935E0,7.855386734E-1,1.598090172E0
8.618708824E0,-3.062390327E0,5.108222961E-1,1.053290367E0
8.623708824E0,-2.628310919E0,1.038618088E-1,1.554660797E-1
8.628708824E0,-2.195484400E0,-5.076999664E-1,-5.278582573E-1
8.633708824E0,-2.000402451E0,-1.024410248E0,-1.046667337E0
8.638708824E0,-2.273980856E0,-1.358013630E0,-1.229606390E0
8.643708824E0,-2.833896160E0,-1.981494904E0,-1.189023972E0
8.648708824E0,-3.287033319E0,-2.643597126E0,-1.157438517E0
8.653708824E0,-3.733694077E0,-3.088951588E0,-1.315047979E0
8.658708824E0,-4.870706558E0,-3.746807575E0,-1.358462811E0
8.663708824E0,-6.124651909E0,-4.617534161E0,-1.205386877E0
8.668708824E0,-6.716128349E0,-4.506641865E0,-2.298445702E-1
8.673708824E0,-7.777844906E0,-4.389926910E0,7.748043537E-1
8.678708824E0,-8.298921585E0,-4.024967670E0,1.921752691E0
8.683708824E0,-8.922790527E0,-3.710101128E0,2.637326717E0
8.688708824E0,-9.211491585E0,-3.620668888E0,2.808141947E0
8.693708824E0,-8.679121971E0,-3.152182102E0,2.994675159E0
8.698708824E0,-7.882746696E0,-2.354584694E0,3.152051926E0
8.703708824E0,-6.608059883E0,-1.474244118E0,2.784947395E0
8.708708824E0,-4.690345764E0,-5.173091888E-1,1.739615202E0
8.713708824E0,-2.339546680E0,4.442491531E-1,1.592161655E-1
8.718708824E0,-5.772536993E-1,1.149490356E0,-1.515126228E0
8.723708824E0,7.148737907E-1,1.240938187E0,-2.191542625E0
8.728708824E0,1.235439181E0,6.418905258E-1,-2.999262810E0
8.733708824E0,1.234088182E0,-3.564548492E-1,-3.434743404E0
8.738708824E0,1.222812176E0,-1.515629768E0,-3.402204037E0
8.743708824E0,1.146636248E0,-2.510205269E0,-3.298634052E0
8.748708824E0,7.822099924E-1,-3.312557220E0,-3.687019348E0
8.753708824E0,-6.453156471E-3,-3.724387646E0,-4.432513237E0
8.758708824E0,-6.470141411E-1,-4.026136875E0,-5.142069817E0
8.763708824E0,-5.863751173E-1,-4.219040871E0,-4.299979687E0
8.768708824E0,-8.337976933E-1,-4.189385414E0,-2.525022507E0
8.773708824E0,-9.360042810E-1,-3.770103931E0,-9.481701851E-1
8.778708824E0,8.653211594E-2,-2.559089661E0,5.831017494E-1
8.783708824E0,1.023924589E0,-1.535144806E0,1.207306385E0
8.788708824E0,1.088390589E0,-9.593706131E-1,5.931434631E-1
8.793708824E0,1.246028304E0,-5.424985886E-1,2.803502083E-1
8.798708824E0,2.228210926E0,-4.184637070E-1,2.141609192E-1
8.803708824E0,2.884734392E0,-4.890956879E-1,5.298154354E-1
8.808708824E0,3.039103508E0,-2.625789642E-1,1.018894672E0
8.813708824E0,3.331278801E0,-3.058815002E-2,1.320806026E0
8.818708824E0,3.650488853E0,-2.172727585E-1,8.772060871E-1
8.823708824E0,3.809530258E0,-6.884222031E-1,-9.482192993E-2
8.828708824E0,4.220911503E0,-1.298078537E0,-1.084980488E0
8.833708824E0,4.397751808E0,-1.798001289E0,-1.759800911E0
8.838708824E0,5.046609879E0,-2.170652390E0,-2.131295204E0
8.843708824E0,5.307432652E0,-2.264045715E0,-1.660104275E0
8.848708824E0,5.751053810E0,-2.461650848E0,-5.894331932E-1
8.853708824E0,6.649901867E0,-2.802961826E0,5.465908051E-1
8.858708824E0,7.149119377E0,-3.120872498E0,1.978691816E0
8.863708824E0,6.731568336E0,-3.731599808E0,1.928935289E0
8.868708824E0,6.335673332E0,-4.188181400E0,1.203374624E0
8.873708824E0,6.194190025E0,-4.409824848E0,6.707110405E-1
8.878708824E0,6.399332047E0,-4.452424049E0,6.171827316E-1
8.883708824E0,6.388991356E0,-4.133723259E0,1.085570574E0
8.888708824E0,5.852363110E0,-3.793212891E0,1.409484148E0
8.893708824E0,5.470296383E0,-3.629466534E0,1.481987238E0
8.898708824E0,5.544457912E0,-3.372683048E0,1.393522024E0
8.903708824E0,5.924004078E0,-2.915909290E0,1.362892151E0
8.908705152E0,6.199033737E0,-2.461832047E0,1.347729445E0
8.913705048E0,5.990417004E0,-1.976105213E0,7.970397472E-1
8.918705048E0,5.601702690E0,-1.603569508E0,4.105625153E-1
8.923705048E0,5.837951660E0,-1.285840034E0,4.829113483E-1
8.928705048E0,6.267478943E0,-9.671888351E-1,5.825109482E-1
8.933705048E0,5.985658169E0,-7.469844818E-1,2.769141197E-1
8.938705048E0,5.108670235E0,-4.465179443E-1,1.495518684E-1
8.943705048E0,3.807080746E0,-4.146490097E-1,-2.055535316E-1
8.948705048E0,1.948546410E0,-7.257041931E-1,-8.432450294E-1
8.953705048E0,-2.737672329E-1,-1.097046375E0,-1.476756811E0
8.958705048E0,-2.141182899E0,-1.732776642E0,-2.877268553E0
8.963705048E0,-4.519583702E0,-2.303426743E0,-4.511517525E0
8.968705048E0,-7.417081356E0,-2.322245121E0,-5.149666309E0
8.973705048E0,-9.955295563E0,-1.883162975E0,-4.423990726E0
8.978705048E0,-1.137137413E1,-1.394667625E0,-3.060226202E0
8.983705048E0,-1.145025635E1,-9.856605530E-2,-8.263320923E-1
8.988705048E0,-1.105087757E1,1.686880112E0,1.930275440E0
8.993705048E0,-1.128716660E1,2.726152420E0,2.792783260E0
8.998705048E0,-1.078674126E1,2.938762665E0,1.190570354E0
9.003705048E0,-9.303338051E0,3.399126053E0,-1.906745434E-1
9.008705048E0,-7.831647873E0,3.827434540E0,-3.323302269E-1
9.013705048E0,-6.673426628E0,3.565115929E0,-2.945897579E-1
9.018705048E0,-6.501736164E0,2.828732491E0,-1.441060066E0
9.023705048E0,-5.785727501E0,2.211555481E0,-2.046454430E0
9.028705048E0,-4.626195431E0,1.346687317E0,-2.375701427E0
9.033705048E0,-3.157498360E0,9.120006561E-1,-2.612041950E0
9.038705048E0,-1.999014735E0,9.160623550E-1,-2.900940657E0
9.043705048E0,-7.638431191E-1,8.860063553E-1,-3.552529812E0
9.048705048E0,8.668217659E-1,1.271179199E0,-3.483962774E0
9.053705048E0,1.940443277E0,1.564209938E0,-3.126621008E0
9.058705048E0,2.553972960E0,1.659829140E0,-3.295224190E0
9.063705048E0,2.864865541E0,1.448782921E0,-3.846372843E0
9.068705048E0,2.605298281E0,1.046145439E0,-4.608802795E0
9.073705048E0,2.152133942E0,6.171178818E-1,-4.766409397E0
9.078705048E0,1.614646435E0,2.819051743E-1,-3.965452671E0
9.083705048E0,1.509917736E0,3.779745102E-1,-2.515821457E0
9.088705048E0,1.063905358E0,4.267005920E-1,-2.032193661E0
9.093705048E0,1.021217108E0,1.236354828E0,-1.965405941E0
9.098705048E0,9.824539423E-1,1.868561745E0,-1.741090298E0
9.103705048E0,4.730841517E-1,1.977279663E0,-1.827246189E0
9.108705048E0,-3.101934195E-1,2.177801132E0,-2.094917536E0
9.113705048E0,-1.066544294E0,2.530636787E0,-1.828140497E0
9.118705048E0,-1.373062372E0,2.662073135E0,-1.301382780E0
9.123705048E0,-1.412610292E0,2.784536362E0,-7.315120697E-1
9.128705048E0,-1.369957685E0,2.762906075E0,-2.094650269E-1
9.133705048E0,-1.820240617E0,3.046214104E0,-1.422863007E-1
9.138705048E0,-1.883460760E0,3.732845306E0,-3.397789001E-1
9.143705048E0,-1.562299013E0,4.132787704E0,-2.414474487E-1
9.148705048E0,-7.820210457E-1,4.031159401E0,-2.044439316E-2
9.153705048E0,2.471097112E-1,4.033851624E0,5.564727783E-1
9.158705048E0,1.039460063E0,4.793227196E0,1.406718731E0
9.163705048E0,1.058988214E0,4.593350410E0,1.704221487E0
9.168705048E0,8.028098941E-1,4.269074440E0,1.766516209E0
9.173705048E0,8.110452890E-1,3.887220383E0,1.909455538E0
9.178705048E0,1.439625025E0,3.230831146E0,1.815030336E0
9.183705048E0,1.997202635E0,2.448328972E0,1.664456606E0
9.188705048E0,1.997187257E0,1.630855560E0,1.282056570E0
9.193705048E0,1.813045025E0,8.159399033E-1,1.169293642E0
9.198705048E0,1.584494829E0,1.492881775E-1,1.512385845E0
9.203705048E0,1.850896239E0,-2.250213623E-1,1.735663414E0
9.208705048E0,2.682295084E0,2.055692673E-1,2.566205978E0
9.213705048E0,2.041079044E0,-1.423168182E-2,3.184558392E0
9.218705048E0,2.371065617E0,1.237497330E-1,2.415004730E0
9.223705048E0,2.916776180E0,5.212411880E-1,2.400731564E0
9.228705048E0,3.380269051E0,7.144165039E-1,2.581615448E0
9.233705048E0,3.512716770E0,6.100587845E-1,2.214217424E0
9.238705048E0,3.496501446E0,6.609964371E-1,1.797531366E0
9.243705048E0,3.599919319E0,6.998395920E-1,1.414754391E0
9.248705048E0,3.627715588E0,5.902547836E-1,1.147623777E0
9.253705048E0,3.238326311E0,4.892807007E-1,9.238543510E-1
9.258705048E0,2.578368664E0,3.253765106E-1,6.649298668E-1
9.263705048E0,1.797183752E0,1.587677002E-2,4.606640339E-1
9.268705048E0,1.246869087E0,-4.046468735E-1,5.668854713E-1
9.273705048E0,7.162393928E-1,-6.801671982E-1,1.213431835E0
9.278705048E0,6.311190128E-2,-6.245536804E-1,1.784067392E0
9.283705048E0,-5.408798456E-1,-5.375089645E-1,1.825442791E0
9.288705048E0,-1.075277209E0,-5.085515976E-1,1.908322692E0
9.293705048E0,-1.308402061E0,-7.107944489E-1,1.969441533E0
9.298705048E0,-1.508513212E0,-1.089934826E0,1.884270191E0
9.303705048E0,-2.286144257E0,-1.417292118E0,1.709753275E0
9.308705048E0,-3.392761230E0,-1.849400997E0,1.954774261E0
9.313705048E0,-4.108000755E0,-2.254631519E0,2.279476643E0
9.318705048E0,-4.182947636E0,-2.664047241E0,2.681130886E0
9.323705048E0,-3.811051846E0,-2.786273003E0,3.141317129E0
9.328705048E0,-2.993802309E0,-3.378997326E0,3.319148540E0
9.333705048E0,-2.285391808E0,-3.788369179E0,3.017897129E0
9.338705048E0,-1.980690002E0,-3.818531036E0,2.761312962E0
9.343705048E0,-2.230381489E0,-3.564198971E0,2.787526846E0
9.348705048E0,-2.635989189E0,-3.223290443E0,2.939209461E0
9.353705048E0,-2.887557983E0,-2.747285366E0,2.980756760E0
9.358705048E0,-2.761713743E0,-2.306759834E0,2.560144424E0
9.363705048E0,-2.039665699E0,-1.917229652E0,1.759452820E0
9.368705048E0,-8.301422596E-1,-1.568621635E0,8.266296387E-1
9.373705048E0,-2.056984901E-1,-1.392601967E0,6.373417377E-1
9.378705048E0,1.235477924E-1,-1.246661663E0,1.000028849E0
9.383705048E0,3.339121342E-1,-1.266885281E0,1.532899976E0
9.388705048E0,6.194484234E-1,-1.419906139E0,1.152434349E0
9.393705048E0,9.123936892E-1,-1.728059769E0,3.601577282E-1
9.398705048E0,8.677697182E-1,-2.204311371E0,-4.718751907E-1
9.403705048E0,6.382763386E-1,-2.635137081E0,-1.319746256E0
9.408705048E0,5.368012190E-1,-2.912672997E0,-1.840519190E0
9.413705048E0,3.325443268E-1,-3.048623562E0,-1.825906515E0
9.418705048E0,-1.392173767E-2,-2.941297054E0,-1.352027416E0
9.423705048E0,-1.867666245E-1,-2.746882915E0,-6.254003048E-1
9.428705048E0,-2.547404766E-1,-2.473101139E0,4.588809013E-1
9.433705048E0,-5.002400875E-1,-2.108850479E0,1.659399509E0
9.438705048E0,-5.544533730E-1,-1.773052692E0,2.752737522E0
9.443705048E0,-3.572816849E-1,-1.528829575E0,3.026709557E0
9.448705048E0,1.203415394E-1,-1.417356014E0,2.359824181E0
9.453705048E0,5.946711302E-1,-1.397007465E0,1.474662066E0
9.458705048E0,8.147721291E-1,-1.581358433E0,1.144495964E0
9.463705048E0,1.111658692E0,-1.848186493E0,1.095924139E0
9.468705048E0,1.435038090E0,-2.076418400E0,6.518490314E-1
9.473705048E0,1.547551394E0,-2.254099846E0,-2.912387848E-1
9.478705048E0,1.962449789E0,-2.116261005E0,-6.697251797E-1
9.483705048E0,9.922133684E-1,-1.654726982E0,4.134724140E-1
9.488705048E0,-3.757474422E-1,-1.031182289E0,1.705296993E0
9.493705048E0,-7.422535419E-1,-5.679330826E-1,1.317266226E0
9.498705048E0,-2.697525024E-1,-5.208864212E-1,-2.972006798E-2
9.503705048E0,6.973708868E-1,-1.092507362E0,-1.459672451E0
9.508705048E0,1.371937394E0,-1.634085178E0,-2.129562855E0
9.513705048E0,1.257055759E0,-1.699378014E0,-2.232920647E0
9.518705048E0,1.715764046E0,-1.591886520E0,-2.126958132E0
9.523705048E0,2.351756096E0,-1.826299191E0,-1.213711500E0
9.528705048E0,2.961950064E0,-1.913624287E0,-1.528191566E-1
9.533705048E0,3.350709677E0,-1.776474476E0,2.850317955E-1
9.538705048E0,2.917240858E0,-1.332477093E0,-3.646087646E-2
9.543705048E0,2.390271187E0,-7.454252243E-1,-6.001360416E-1
9.548705048E0,2.112347841E0,-1.180906296E-1,-1.913837194E0
9.553705048E0,2.112762928E0,-1.062755585E-1,-2.742207050E0
9.558705048E0,2.127847672E0,-8.724880219E-2,-3.266742706E0
9.563705048E0,1.572950125E0,3.220663071E-1,-3.602655411E0
9.568705048E0,1.138870478E0,3.584794998E-1,-3.121907711E0
9.573705048E0,6.106204987E-1,5.809030533E-1,-2.208932400E0
9.578705048E0,-3.893327713E-2,5.904121399E-1,-1.524765968E0
9.583705048E0,1.736326218E-1,5.211601257E-1,-1.064441204E0
9.588705048E0,7.585904598E-1,-2.919006348E-1,-4.862766266E-1
9.593705048E0,1.283377409E0,-1.122078419E0,-6.407821178E-1
9.598705048E0,1.694910765E0,-5.223503113E-1,-1.465343714E0
9.603705048E0,1.477600574E0,6.905870438E-1,-1.252268076E0
9.608705048E0,4.909338951E-1,3.093247414E0,-1.444839478E0
9.613705048E0,8.604388237E-1,4.748353958E0,-1.788053989E0
9.618705048E0,1.467605591E0,5.269570351E0,-2.385181904E0
9.623705048E0,1.482615471E0,5.125113487E0,-2.593828917E0
9.628705048E0,1.190440893E0,5.492623329E0,-3.485362291E0
9.633705048E0,7.582547665E-1,6.189258575E0,-4.665527344E0
9.638705048E0,1.545140982E0,5.884464264E0,-4.484587669E0
9.643705048E0,2.571530342E0,4.538813591E0,-3.242653370E0
9.648705048E0,3.099327087E0,3.401520729E0,-2.545291901E0
9.653705048E0,2.332866430E0,2.957459450E0,-2.839020729E0
9.658705048E0,1.478817701E0,2.823948860E0,-2.961638927E0
9.663705048E0,1.194127560E0,2.708165169E0,-2.670089245E0
9.668705048E0,8.074235916E-1,3.005416870E0,-2.229152203E0
9.673705048E0,1.072387457E0,3.559047699E0,-1.805162907E0
9.678705048E0,1.653031588E0,4.011197090E0,-1.331882477E0
9.683705048E0,1.750285625E0,4.112888336E0,-1.130702972E0
9.688705048E0,1.696176529E0,4.057594299E0,-9.480333328E-1
9.693705048E0,1.497305393E0,3.605504990E0,-6.624026299E-1
9.698705048E0,1.201108456E0,2.837697029E0,-5.000114441E-3
9.703705048E0,7.975759506E-1,2.425694466E0,1.059054613E0
9.708705048E0,4.449388981E-1,2.303863049E0,1.820660114E0
9.713705048E0,-2.269330025E-1,2.238804817E0,1.853800535E0
9.718705048E0,-6.596257687E-1,2.319371223E0,1.779073238E0
9.723705048E0,3.664255142E-2,2.189329624E0,1.831110001E0
9.728705048E0,5.149514675E-1,1.846167088E0,2.007065296E0
9.733705048E0,-4.100036621E-2,1.341413498E0,1.668776989E0
9.738705048E0,-7.613015175E-1,6.545791626E-1,9.385020733E-1
9.743705048E0,-1.560475349E0,7.329273224E-2,2.358903885E-1
9.748705048E0,-2.419986725E0,-4.043292999E-2,8.607673645E-2
9.753705048E0,-2.791307211E0,3.004837036E-2,7.197427750E-2
9.758705048E0,-2.874079466E0,8.297872543E-2,-4.419279099E-2
9.763705048E0,-3.052962780E0,3.170900345E-1,6.689643860E-2
9.768705048E0,-3.134945869E0,9.249253273E-1,-2.585077286E-2
9.773705048E0,-3.081825256E0,1.383582592E0,-3.205022812E-1
9.778705048E0,-3.216871500E0,1.591793060E0,-5.888099670E-1
9.783705048E0,-3.216221571E0,1.927053452E0,-6.823096275E-1
9.788705048E0,-3.024964094E0,1.891756058E0,-1.002850056E0
9.793705048E0,-3.165302038E0,1.911513329E0,-8.348288536E-1
9.798705048E0,-3.122445345E0,1.873665810E0,-7.282795906E-1
9.803705048E0,-2.750328064E0,1.944114685E0,-6.467394829E-1
9.808705048E0,-2.518666029E0,1.666575432E0,-4.858517647E-1
9.813705048E0,-2.389317036E0,8.974046707E-1,2.242374420E-2
9.818705048E0,-1.971018076E0,1.297645569E-1,3.754799366E-1
9.823705048E0,-1.705401182E0,-1.927585602E-1,1.230991840E0
9.828705048E0,-1.436124563E0,-4.620151520E-1,1.355648041E0
9.833705048E0,-1.034140348E0,-7.643165588E-1,1.195779562E0
9.838705048E0,-1.303515673E0,-6.220312119E-1,1.673141718E0
9.843705048E0,-1.525625706E0,-5.679521561E-1,1.915772676E0
9.848705048E0,-1.544456244E0,-6.132493019E-1,2.331276894E0
9.853705048E0,-1.773056030E0,-7.428541183E-1,3.455701590E0
9.858705048E0,-3.945493698E-1,-1.525275707E0,1.948876143E0
9.863705048E0,4.806630611E-1,-1.932837486E0,1.275059700E0
9.868705048E0,5.546724796E-1,-2.185430050E0,7.942471504E-1
9.873705048E0,-9.178590775E-2,-2.206218719E0,6.161439419E-1
9.878705048E0,-1.044040203E0,-2.118374348E0,5.965662003E-1
9.883705048E0,-1.618258476E0,-2.393586159E0,1.864013672E-1
9.888705048E0,-2.054752827E0,-2.736654282E0,-3.728981018E-1
9.893705048E0,-2.226136208E0,-3.175821304E0,-1.442527533E0
9.898705048E0,-2.210331917E0,-3.587523460E0,-2.481280088E0
9.903705048E0,-2.111789703E0,-3.946263790E0,-3.372824192E0
9.908705048E0,-2.162563801E0,-4.209854603E0,-3.741270065E0
9.913705048E0,-1.909592152E0,-4.446849823E0,-3.748109102E0
9.918705048E0,-1.071978092E0,-4.694734097E0,-3.273891926E0
9.923705048E0,-6.987094879E-2,-4.794392109E0,-2.673916817E0
9.928705048E0,8.093576431E-1,-4.583435535E0,-1.822702408E0
9.933705048E0,1.151079893E0,-4.166489124E0,-4.887993336E-1
9.938705048E0,9.464330673E-1,-3.481010914E0,5.113644600E-1
9.943705048E0,4.608023167E-1,-2.798536301E0,1.505046368E0
9.948705048E0,5.391540527E-1,-2.215481281E0,3.062704802E0
9.953705048E0,1.153255939E0,-1.782737255E0,5.478122711E0
9.958705048E0,1.466940880E0,-1.416354656E0,7.194790840E0
9.963705048E0,1.840551615E0,-1.262895584E0,7.207725525E0
9.968705048E0,1.553291559E0,-9.219574928E-1,5.765686989E0
9.973705048E0,1.141734838E0,-4.221315384E-1,3.841600418E0
9.978705048E0,1.494376421E0,-6.322603226E-1,2.307364941E0
9.983705048E0,2.199662447E0,-1.352291107E0,1.116626501E0
9.988705048E0,2.570197105E0,-2.387570858E0,-1.167485714E-1
9.993705048E0,2.628723145E0,-3.579762936E0,-7.413585186E-1
9.998705048E0,2.057481766E0,-4.716385365E0,-1.247169733E0
1.000370505E1,8.400440216E-1,-5.495271683E0,-1.336149931E0
1.000870505E1,-4.679136276E-1,-5.486162186E0,-1.376773596E0
1.001370505E1,-2.306391239E0,-4.499649048E0,-1.719806433E0
1.001870505E1,-4.232649803E0,-3.117918015E0,-1.507634163E0
1.002370505E1,-4.996552944E0,-2.079152107E0,-6.067864895E-1
1.002870505E1,-4.847245693E0,-1.421116829E0,7.061457634E-1
1.003370505E1,-3.364109516E0,-1.381811619E0,1.372112036E0
1.003870505E1,-1.593194485E0,-1.693179131E0,1.793466568E0
1.004370505E1,-1.008529663E-1,-1.990159035E0,2.791692019E0
1.004870505E1,7.535245419E-1,-2.038298130E0,4.210580826E0
1.005370505E1,8.133480549E-1,-1.833798885E0,3.242701054E0
1.005870505E1,8.495054245E-1,-1.310766697E0,3.047624588E0
1.006370505E1,7.285628319E-1,-5.391502380E-1,2.473658800E0
1.006870505E1,6.256940365E-1,1.728906631E-1,1.505298853E0
1.007370505E1,6.495301723E-1,5.833673477E-1,1.038109541E0
1.007870505E1,9.722678661E-1,7.076644897E-1,1.039018512E0
1.008370505E1,8.769180775E-1,5.879259109E-1,8.973555565E-1
1.008870505E1,4.365198612E-1,3.985967636E-1,5.192369223E-1
1.009370505E1,3.296978474E-1,2.974948883E-1,4.890989065E-1
1.009870505E1,3.015773296E-1,2.172393799E-1,5.039465427E-1
1.010370505E1,2.800426483E-1,2.882184982E-1,1.000931978E0
1.010870505E1,4.181542397E-1,4.846429825E-1,1.045515895E0
1.011370505E1,7.789444923E-1,9.344215393E-1,6.337118149E-1
1.011870505E1,1.109818935E0,9.146423340E-1,9.792599678E-1
1.012370505E1,9.751539230E-1,6.622247696E-1,1.182298660E0
1.012870505E1,1.179309130E0,1.289272308E-1,8.708816767E-1
1.013370505E1,1.213730454E0,-5.149507523E-1,-6.701946259E-3
1.013870505E1,1.669507742E0,-1.032235622E0,-7.049012184E-1
1.014370505E1,2.206583738E0,-9.091711044E-1,-8.811852932E-1
1.014870505E1,1.313604355E0,-6.050739288E-1,-1.095514536E0
